File: Tensile Al7075/raw-CSV/Group3-190Cfor2h.is_tens.raw.csv
Time sec;Extension mm;Strain 1 %;Load N
0;0;-0.0005171917;27.13142
0.1;0;-0.0002273609;27.20391
0.2;0;8.787592e-005;27.20964
0.3;0;4.448711e-005;27.0971
0.4;0;0.0002407292;27.0947
0.5;0;-3.973219e-006;27.06204
0.6;0;0.000118574;27.02414
0.7;0;0.0001232044;27.03168
0.8;0;-0.0001442337;26.71698
0.9;0;0.0002166951;26.91151
1;0;0.0001516485;27.09
1.1;0.00008;8.018305e-005;26.98272
1.2;0.00008;0.0001591209;27.23642
1.3;0.00012;0.0002792181;26.98585
1.4;0.00016;0.0003475967;26.85373
1.5;0.00024;8.175102e-005;27.05817
1.6;0.00032;-4.452013e-005;27.16224
1.7;0.0004;3.82397e-005;27.05156
1.8;0.00052;0.0002788996;27.25547
1.9;0.00064;0.0003819207;27.49269
2;0.00076;0.0001865606;27.63804
2.1;0.00092;0.0002459967;27.88849
2.2;0.00108;-2.499391e-005;28.08674
2.3;0.00124;0.000157014;28.24442
2.4;0.0014;0.0001101461;28.35395
2.5;0.00156;0.0002374953;29.06051
2.6;0.0018;9.76268e-005;28.79812
2.7;0.002;0.0001080391;29.81855
2.8;0.00224;0.0001239639;30.02762
2.9;0.00248;0.000528355;30.74887
3;0.00276;0.0003437257;30.98211
3.1;0.00308;0.0008019916;31.6373
3.2;0.00344;0.0006679786;33.08303
3.3;0.00384;0.0004723243;33.97535
3.4;0.00424;0.0009023911;35.05844
3.5;0.00468;0.0008117669;36.72599
3.6;0.00512;0.000844033;38.15634
3.7;0.00556;0.001163704;40.02734
3.8;0.00604;0.0007709506;41.77906
3.9;0.00652;0.001170932;44.41659
4;0.00708;0.001339955;46.55384
4.1;0.00772;0.001378738;49.7057
4.2;0.008440001;0.00130764;54.45767
4.3;0.00916;0.002159517;61.01172
4.4;0.00996;0.002588481;69.41728
4.5;0.01088;0.00333452;80.13726
4.6;0.0118;0.004237087;93.10432
4.7;0.01284;0.005247476;108.4561
4.8;0.01396;0.006292141;125.4789
4.9;0.01524;0.007818812;146.262
5;0.0166;0.009221931;169.4138
5.1;0.01812;0.01095673;195.2288
5.2;0.01976;0.01305061;223.4853
5.3;0.02156;0.01482294;253.8646
5.4;0.02352;0.01688429;286.6933
5.5;0.02568;0.01913243;322.8015
5.6;0.02804;0.02165942;362.551
5.7;0.03064;0.0241735;405.6538
5.8;0.03344;0.02672651;451.8118
5.9;0.03636;0.02978284;500.3028
6;0.03944;0.03286181;551.9939
6.1;0.04276;0.03611485;605.6243
6.2;0.04624;0.03971399;662.1868
6.3;0.04992;0.04338193;722.0203
6.4;0.05388;0.04730876;786.8641
6.5;0.058;0.05098473;854.7893
6.6;0.06228;0.05523327;925.1033
6.7;0.06668;0.0596503;997.1233
6.8;0.07116;0.064142;1070.528
6.9;0.07576;0.06892685;1145.41
7;0.08048;0.07361655;1221.063
7.1;0.08532001;0.07811909;1298.865
7.2;0.09024001;0.08337833;1377.22
7.3;0.09532;0.08859117;1458.166
7.4;0.1004;0.09326673;1539.51
7.5;0.10548;0.09844586;1620.688
7.6;0.11072;0.1030416;1703.332
7.7;0.11604;0.1089043;1787.353
7.8;0.12144;0.1145215;1873.563
7.9;0.12696;0.1201108;1960.246
8;0.13248;0.1258574;2046.59
8.1;0.13816;0.1312684;2134.49
8.2;0.14392;0.1368011;2224.755
8.3;0.14968;0.1422571;2315.821
8.4;0.15552;0.1479072;2406.977
8.5;0.16144;0.1534582;2499.411
8.6;0.1674;0.1592406;2593.601
8.7;0.17344;0.1651113;2687.452
8.8;0.17952;0.1712887;2781.45
8.9;0.18572;0.1771022;2877.794
9;0.19196;0.1833641;2974.448
9.1;0.1982;0.1896794;3071.88
9.2;0.20452;0.1958973;3169.155
9.3;0.21084;0.2023269;3266.836
9.4;0.2172;0.2087571;3364.022
9.5;0.22356;0.2156447;3460.978
9.6;0.22992;0.2217876;3557.286
9.7;0.23612;0.2285781;3652.726
9.8;0.24228;0.2348214;3747.108
9.9;0.24844;0.241068;3841.168
10;0.2546;0.2471628;3934.836
10.1;0.26068;0.2529169;4027.443
10.2;0.26672;0.2589215;4117.721
10.3;0.2728;0.2646458;4208.26
10.4;0.27884;0.270069;4299.178
10.5;0.28476;0.2761074;4389.428
10.6;0.29072;0.2813259;4478.863
10.7;0.29668;0.287824;4568.27
10.8;0.30256;0.2932138;4655.715
10.9;0.30828;0.2987766;4741.889
11;0.31404;0.304312;4826.928
11.1;0.31972;0.3102207;4911.723
11.2;0.32544;0.3159741;4996.204
11.3;0.33104;0.3214534;5079.835
11.4;0.3366;0.3271626;5161.793
11.5;0.34212;0.33316;5243.698
11.6;0.34752;0.3379664;5323.099
11.7;0.35288;0.3434681;5400.738
11.8;0.35816;0.3488805;5476.822
11.9;0.36328;0.3537835;5551.5
12;0.36824;0.35932;5623.529
12.1;0.37304;0.3638785;5692.656
12.2;0.37768;0.3685145;5759.231
12.3;0.38224;0.373059;5823.817
12.4;0.38668;0.3774195;5886.276
12.5;0.391;0.3817359;5946.801
12.6;0.39516;0.3858506;6005.262
12.7;0.3992;0.3901906;6060.782
12.8;0.40316;0.3943849;6114.264
12.9;0.407;0.3984392;6166.999
13;0.41072;0.4024309;6217.358
13.1;0.41428;0.4061021;6265.765
13.2;0.41772;0.4099734;6311.674
13.3;0.42104;0.4138699;6355.485
13.4;0.42428;0.4171853;6397.357
13.5;0.4274;0.4205755;6437.567
13.6;0.43036;0.424025;6475.426
13.7;0.4332;0.4277196;6509.399
13.8;0.43588;0.4307317;6542.529
13.9;0.43844;0.433921;6573.752
14;0.44092;0.4365223;6602.766
14.1;0.44328;0.4390239;6630.448
14.2;0.44556;0.4418788;6656.188
14.3;0.44768;0.4446881;6680.447
14.4;0.44972;0.4473698;6703.501
14.5;0.45168;0.4495625;6725.375
14.6;0.45348;0.4517663;6746.209
14.7;0.45524;0.4541086;6764.438
14.8;0.4568;0.4558272;6781.606
14.9;0.45828;0.4580771;6796.733
15;0.45968;0.4599902;6810.971
15.1;0.46092;0.461423;6824.032
15.2;0.46216;0.4631334;6835.838
15.3;0.46324;0.4645293;6847.104
15.4;0.46416;0.4656362;6856.155
15.5;0.46512;0.466826;6864.478
15.6;0.466;0.4677438;6873.065
15.7;0.46684;0.469317;6880.743
15.8;0.46756;0.4702982;6887.332
15.9;0.46824;0.4709471;6893.139
16;0.4688;0.471636;6898.289
16.1;0.46932;0.4722526;6902.491
16.2;0.46976;0.4729831;6905.551
16.3;0.47016;0.4734645;6908.874
16.4;0.47052;0.4742369;6910.779
16.5;0.4708;0.4744972;6912.075
16.6;0.47108;0.4744753;6913.552
16.7;0.47128;0.475234;6914.533
16.8;0.47148;0.4758182;6915.521
16.9;0.47164;0.4758617;6916.21
17;0.47172;0.475906;6915.741
17.1;0.47176;0.4759381;6915.011
17.2;0.4718;0.4762057;6914.452
17.3;0.4718;0.4762953;6913.301
17.4;0.4718;0.4762786;6912.198
17.5;0.4718;0.4764304;6911.393
17.6;0.4718;0.476556;6910.278
17.7;0.4718;0.476138;6909.35
17.8;0.4718;0.476383;6908.599
17.9;0.4718;0.47627;6907.755
18;0.4718;0.476553;6906.763
18.1;0.4718;0.4768743;6905.702
18.2;0.4718;0.4765342;6904.906
18.3;0.4718;0.4767449;6904.313
18.4;0.4718;0.4764832;6903.301
18.5;0.4718;0.4766589;6902.688
18.6;0.4718;0.4765607;6901.897
18.7;0.4718;0.4765356;6901.465
18.8;0.4718;0.4768617;6900.809
18.9;0.4718;0.4767451;6899.977
19;0.4718;0.4766594;6899.277
19.1;0.4718;0.4766579;6898.876
19.2;0.4718;0.4766353;6898.519
19.3;0.4718;0.4765196;6898.015
19.4;0.47184;0.4766672;6897.276
19.5;0.47188;0.4766766;6896.5
19.6;0.47192;0.4768966;6896.554
19.7;0.47196;0.4769548;6895.784
19.8;0.47204;0.476725;6895.751
19.9;0.47208;0.4770026;6895.183
20;0.47216;0.4767064;6895.05
20.1;0.47228;0.4766902;6895.172
20.2;0.47236;0.4766737;6895.102
20.3;0.47248;0.4767589;6895.457
20.4;0.47268;0.4769472;6896.377
20.5;0.47288;0.4768655;6897.571
20.6;0.47308;0.4771349;6899.705
20.7;0.47332;0.4774642;6903.229
20.8;0.47368;0.4775788;6907.747
20.9;0.47404;0.4781994;6912.917
21;0.47444;0.4787176;6918.953
21.1;0.47496;0.4793231;6926.507
21.2;0.47552;0.4802826;6934.502
21.3;0.47608;0.4806979;6942.858
21.4;0.47672;0.4814219;6951.622
21.5;0.4774;0.4825785;6961.227
21.6;0.4782;0.4831973;6971.36
21.7;0.47904;0.4845819;6982.452
21.8;0.47996;0.4856571;6993.757
21.9;0.48092;0.4868404;7004.852
22;0.48204;0.4883422;7017.014
22.1;0.48324;0.4900887;7031.102
22.2;0.48456;0.4920351;7043.696
22.3;0.48592;0.4940591;7056.905
22.4;0.4874;0.4963839;7070.23
22.5;0.48884;0.4987149;7082.565
22.6;0.49044;0.5010885;7094.952
22.7;0.49212;0.5041056;7108.482
22.8;0.49388;0.5072705;7121.763
22.9;0.49568;0.5100631;7135.705
23;0.49748;0.5131579;7148.636
23.1;0.49932;0.5162398;7162.409
23.2;0.50124;0.5204644;7175.232
23.3;0.50316;0.5239463;7187.732
23.4;0.50512;0.5278258;7200.501
23.5;0.50716;0.5315467;7212.936
23.6;0.50924;0.5355028;7226.214
23.7;0.51136;0.5397941;7238.559
23.8;0.51352;0.5442605;7251.076
23.9;0.5158;0.5482201;7264.14
24;0.51808;0.5530766;7276.426
24.1;0.52044;0.557272;7289.064
24.2;0.5228;0.5622735;7300.167
24.3;0.52524;0.5670186;7312.039
24.4;0.52768;0.5720955;7323.615
24.5;0.53012;0.5767914;7334.823
24.6;0.53268;0.5817015;7345.866
24.7;0.5352;0.587303;7356.384
24.8;0.5378;0.5924295;7367.028
24.9;0.5403601;0.598028;7377.487
25;0.54296;0.6039824;7387.172
25.1;0.54552;0.6090803;7396.894
25.2;0.54812;0.6148795;7406.098
25.3;0.55072;0.6207607;7415.171
25.4;0.55332;0.6263292;7423.472
25.5;0.55588;0.6328891;7432.125
25.6;0.55852;0.638374;7440.867
25.7;0.56108;0.6446437;7448.568
25.8;0.56364;0.6505741;7456.543
25.9;0.56616;0.6559384;7463.527
26;0.5686;0.6616331;7470.218
26.1;0.57104;0.6666406;7477.234
26.2;0.57344;0.6725266;7483.447
26.3;0.57584;0.6782322;7490.171
26.4;0.5782;0.6833213;7496.464
26.5;0.58048;0.6886216;7502.323
26.6;0.58284;0.6933574;7508.316
26.7;0.58512;0.6989195;7514.327
26.8;0.58728;0.7038607;7518.855
26.9;0.58944;0.7087251;7524.131
27;0.59152;0.7136065;7528.821
27.1;0.59352;0.7181863;7533.265
27.2;0.5954001;0.7233185;7537.097
27.3;0.59724;0.7275332;7540.993
27.4;0.59904;0.7315843;7544.763
27.5;0.60076;0.7354815;7548.138
27.6;0.60244;0.7393581;7551.761
27.7;0.60404;0.7428641;7555.1
27.8;0.6056;0.7465495;7558.016
27.9;0.60704;0.7498208;7560.746
28;0.60848;0.7529991;7563.714
28.1;0.60984;0.7556025;7566.554
28.2;0.61108;0.7588027;7568.45
28.3;0.6122;0.7614619;7569.334
28.4;0.61336;0.7641914;7571.337
28.5;0.61448;0.7665779;7573.819
28.6;0.61552;0.7689393;7575.902
28.7;0.61648;0.7715038;7577.457
28.8;0.61736;0.7734954;7578.222
28.9;0.6182001;0.7756051;7579.112
29;0.619;0.7777099;7579.827
29.1;0.61972;0.7788379;7580.302
29.2;0.6204;0.7803926;7580.951
29.3;0.621;0.7818267;7581.148
29.4;0.6216;0.7830155;7581.104
29.5;0.6221201;0.783937;7581.287
29.6;0.6226001;0.7855071;7581.396
29.7;0.62304;0.786305;7580.811
29.8;0.6234;0.7875995;7580.099
29.9;0.62372;0.788316;7579.276
30;0.62404;0.7888802;7578.258
30.1;0.62432;0.7895096;7577.384
30.2;0.6245601;0.789929;7576.549
30.3;0.62484;0.7909977;7576.024
30.4;0.625;0.7911637;7574.849
30.5;0.6252;0.791553;7573.983
30.6;0.62536;0.7922136;7572.437
30.7;0.62548;0.792505;7571.596
30.8;0.62564;0.792631;7570.338
30.9;0.62572;0.7934188;7569.411
31;0.6258;0.7936504;7567.935
31.1;0.62592;0.7938571;7566.882
31.2;0.626;0.7939807;7565.603
31.3;0.62608;0.7942985;7564.147
31.4;0.6262001;0.7946297;7563.468
31.5;0.62628;0.7946778;7562.723
31.6;0.62636;0.7952256;7561.474
31.7;0.62644;0.7954187;7561.228
31.8;0.62656;0.7956215;7560.556
31.9;0.62664;0.7955356;7560.065
32;0.62676;0.7956438;7560.127
32.1;0.6268801;0.7962301;7559.914
32.2;0.627;0.7961422;7559.729
32.3;0.62716;0.796531;7560.056
32.4;0.62728;0.7967503;7560.917
32.5;0.62748;0.7970362;7561.682
32.6;0.6276801;0.7975204;7562.83
32.7;0.62792;0.7976415;7564.371
32.8;0.6282;0.7977589;7566.969
32.9;0.62844;0.7981122;7569.858
33;0.62872;0.7986578;7572.559
33.1;0.62904;0.7994754;7575.696
33.2;0.62936;0.7997854;7578.573
33.3;0.62972;0.8002235;7582.167
33.4;0.63012;0.8010115;7586.288
33.5;0.6306;0.8017079;7590.862
33.6;0.63108;0.8023655;7596.03
33.7;0.63164;0.8030297;7600.982
33.8;0.6321601;0.8038494;7606.495
33.9;0.63276;0.8048799;7611.872
34;0.6334401;0.8060209;7617.488
34.1;0.63412;0.806942;7623.772
34.2;0.63492;0.8084666;7629.403
34.3;0.6357201;0.809652;7635.331
34.4;0.63656;0.8111231;7640.949
34.5;0.63748;0.8124434;7646.269
34.6;0.6385201;0.8145938;7652.148
34.7;0.63956;0.8167584;7656.72
34.8;0.64072;0.8190406;7661.15
34.9;0.6419201;0.8216687;7664.731
35;0.64316;0.824054;7667.197
35.1;0.64448;0.8269694;7669.812
35.2;0.64588;0.8304731;7670.891
35.3;0.64728;0.833639;7672.209
35.4;0.6488001;0.8374695;7673.75
35.5;0.6504;0.8414638;7674.786
35.6;0.652;0.8456345;7675.732
35.7;0.65368;0.8498852;7677.665
35.8;0.65536;0.8539253;7678.517
35.9;0.65712;0.8581983;7680.482
36;0.65892;0.8626765;7682.022
36.1;0.66072;0.8666286;7683.744
36.2;0.66252;0.8713125;7685.236
36.3;0.6644001;0.8756337;7687.462
36.4;0.66636;0.8804583;7690.337
36.5;0.66836;0.8848362;7692.648
36.6;0.6704;0.8893726;7695.775
36.7;0.6724401;0.894134;7698.427
36.8;0.67448;0.8991241;7700.565
36.9;0.67656;0.9041875;7703.688
37;0.6786401;0.9093297;7706.389
37.1;0.68072;0.9143329;7708.873
37.2;0.68284;0.9194577;7711.522
37.3;0.68496;0.9239804;7714.774
37.4;0.68712;0.9294356;7717.697
37.5;0.68932;0.9342245;7720.938
37.6;0.69148;0.9392406;7723.655
37.7;0.69364;0.9449439;7726.517
37.8;0.6958401;0.949725;7729.398
37.9;0.6979601;0.9544724;7731.546
38;0.70004;0.9593721;7734.161
38.1;0.70212;0.9638743;7737.084
38.2;0.70412;0.9684055;7739.04
38.3;0.70608;0.9724442;7741.211
38.4;0.70804;0.9769332;7744.539
38.5;0.70996;0.9806111;7746.79
38.6;0.71184;0.9850121;7749.472
38.7;0.7137201;0.9886275;7751.79
38.8;0.7156;0.9926503;7754.955
38.9;0.71748;0.9964379;7758.125
38.998;0.7192801;1.000066;7760.604
39;0.71932;1.000134;7760.669
39.1;0.72116;1.003917;7764.226
39.2;0.72304;1.008108;7767.381
39.3;0.7248401;1.011478;7769.769
39.4;0.72672;1.015755;7773.028
39.5;0.7286;1.019307;7776.463
39.6;0.7305601;1.02388;7780.108
39.7;0.73256;1.027355;7783.992
39.8;0.7346401;1.031931;7787.7
39.9;0.73676;1.035979;7791.527
40;0.739;1.040478;7795.411
40.1;0.74128;1.045587;7798.573
40.2;0.74364;1.050469;7802.989
40.3;0.74616;1.055819;7807.212
40.4;0.74872;1.060748;7811.216
40.5;0.75148;1.066014;7815.1
40.6;0.75428;1.072047;7818.944
40.7;0.7572;1.077453;7823.122
40.8;0.76024;1.08377;7827.4
40.9;0.76332;1.089779;7830.817
41;0.76652;1.096147;7834.949
41.1;0.7698;1.102512;7839.027
41.2;0.77324;1.109549;7843.892
41.3;0.7767601;1.116555;7848.35
41.4;0.7804;1.123285;7853.03
41.5;0.78416;1.131201;7857.899
41.6;0.78808;1.139374;7862.96
41.7;0.79212;1.147577;7868.647
41.8;0.79632;1.156164;7873.337
41.9;0.80068;1.164865;7879.453
42;0.80528;1.173845;7885.461
42.1;0.81;1.183271;7891.352
42.2;0.81484;1.192677;7897.557
42.3;0.81988;1.20244;7903.923
42.4;0.82516;1.212676;7911.266
42.5;0.8306;1.223163;7918.089
42.6;0.83616;1.233623;7924.3
42.7;0.84192;1.244066;7931.285
42.8;0.8478401;1.256082;7938.96
42.9;0.854;1.267355;7946.509
43;0.8602;1.279414;7954.507
43.1;0.86644;1.291442;7962.153
43.2;0.87276;1.302648;7969.627
43.3;0.8792;1.314558;7978.424
43.4;0.88564;1.327094;7986.594
43.5;0.89216;1.33933;7994.915
43.6;0.89864;1.351872;8002.663
43.7;0.9052;1.363984;8010.954
43.8;0.91184;1.375985;8020.264
43.9;0.91856;1.387821;8028.799
44;0.92532;1.400153;8037.076
44.1;0.93224;1.412443;8045.75
44.2;0.93928;1.425382;8055.516
44.3;0.9464;1.438212;8064.277
44.4;0.95356;1.450951;8073.493
44.5;0.9608;1.465339;8083.298
44.6;0.96808;1.478963;8092.354
44.7;0.97544;1.492469;8101.892
44.8;0.98292;1.505881;8111.142
44.9;0.99048;1.519547;8120.658
45;0.99808;1.533116;8130.211
45.1;1.00576;1.546677;8140.086
45.2;1.01348;1.561315;8149.721
45.3;1.02128;1.575665;8159.442
45.4;1.02904;1.590057;8168.575
45.5;1.03676;1.603852;8177.392
45.6;1.04452;1.617621;8187.369
45.7;1.05224;1.631437;8197.887
45.8;1.05996;1.645125;8207.154
45.9;1.0676;1.659762;8215.916
46;1.07516;1.674068;8225.185
46.1;1.08272;1.687329;8234.532
46.2;1.0902;1.700022;8243.856
46.3;1.09768;1.71371;8253.711
46.4;1.10512;1.727224;8262.879
46.5;1.11256;1.740704;8271.83
46.6;1.12004;1.754493;8281.343
46.7;1.12748;1.769134;8290.327
46.8;1.13492;1.782275;8299.626
46.9;1.14232;1.795646;8309.044
47;1.1496;1.808746;8317.195
47.1;1.15676;1.821534;8325.128
47.2;1.1638;1.834209;8333.438
47.3;1.17072;1.846123;8341.522
47.4;1.17764;1.858191;8349.489
47.5;1.18452;1.871265;8358.79
47.6;1.19128;1.883595;8366.515
47.7;1.198;1.895812;8374.946
47.8;1.20472;1.908088;8383.235
47.9;1.21132;1.919991;8391.062
48;1.21784;1.93143;8398.453
48.1;1.22432;1.942589;8406.164
48.2;1.23068;1.953552;8414.429
48.3;1.23692;1.964933;8421.443
48.4;1.24304;1.976508;8428.278
48.5;1.24908;1.987194;8435.387
48.6;1.25512;1.997562;8442.52
48.7;1.26104;2.007944;8449.142
48.8;1.26696;2.017664;8455.985
48.9;1.27284;2.027487;8463.144
49;1.2786;2.038001;8469.922
49.1;1.28432;2.048167;8476.422
49.2;1.28992;2.058094;8482.681
49.3;1.29536;2.067743;8488.421
49.4;1.30056;2.077429;8493.321
49.5;1.3056;2.086489;8498.833
49.6;1.31052;2.094981;8504.127
49.7;1.31532;2.103221;8509.713
49.8;1.32;2.111574;8515.847
49.9;1.3246;2.119001;8521.409
50;1.3292;2.12657;8527.601
50.1;1.3338;2.13468;8533.642
50.2;1.33844;2.142348;8539.889
50.3;1.34304;2.150073;8545.376
50.4;1.3476;2.157917;8550.28
50.5;1.35224;2.166048;8556.183
50.6;1.35692;2.174101;8561.689
50.7;1.36156;2.182857;8567.532
50.8;1.36612;2.190829;8572.71
50.9;1.3706;2.198978;8577.187
51;1.37504;2.206777;8581.538
51.1;1.37944;2.214225;8586.439
51.2;1.38384;2.221625;8590.952
51.3;1.38824;2.229363;8596.271
51.4;1.39256;2.23651;8600.597
51.5;1.39688;2.243716;8605.351
51.6;1.4012;2.251044;8610.511
51.7;1.40552;2.258198;8615.453
51.8;1.4098;2.266002;8620.749
51.9;1.41408;2.273263;8625.362
52;1.41836;2.280763;8630.403
52.1;1.42272;2.288517;8635.122
52.2;1.42696;2.295932;8639.588
52.3;1.4312;2.303404;8643.856
52.4;1.4354;2.31043;8647.366
52.5;1.43964;2.31831;8652.719
52.6;1.44396;2.325655;8657.493
52.7;1.44828;2.332396;8662.565
52.8;1.45264;2.340103;8667.61
52.9;1.45696;2.34737;8672.988
53;1.46128;2.354994;8677.259
53.1;1.46572;2.362669;8681.819
53.2;1.47012;2.370701;8687.082
53.3;1.4746;2.378083;8691.785
53.4;1.47908;2.386698;8696.514
53.5;1.48364;2.394395;8701.207
53.6;1.48828;2.402375;8706.224
53.7;1.493;2.410394;8711.62
53.8;1.49776;2.418333;8716.894
53.9;1.50256;2.426784;8721.907
54;1.5074;2.43523;8726.852
54.1;1.5124;2.443689;8732.06
54.2;1.51748;2.452706;8737.516
54.3;1.52264;2.461829;8742.622
54.4;1.5278;2.471245;8747.098
54.5;1.53312;2.480323;8752.321
54.6;1.53844;2.489757;8756.903
54.7;1.54388;2.499904;8762.673
54.8;1.54936;2.509457;8768.105
54.9;1.55488;2.519334;8773.357
55;1.5604;2.529209;8778.438
55.1;1.56596;2.538947;8782.841
55.2;1.57156;2.548432;8788.041
55.3;1.5772;2.558388;8793.567
55.4;1.58292;2.568425;8798.688
55.5;1.58868;2.578174;8804.905
55.6;1.59448;2.58886;8810.546
55.7;1.60032;2.599799;8816.067
55.8;1.6062;2.610328;8821.648
55.9;1.61212;2.620821;8826.696
56;1.61808;2.631007;8832.393
56.1;1.62416;2.641596;8838.42
56.2;1.63032;2.652192;8844.611
56.3;1.63652;2.662678;8850.658
56.4;1.64284;2.674137;8856.771
56.5;1.6492;2.685465;8862.794
56.6;1.65564;2.696979;8868.472
56.7;1.66208;2.708456;8873.159
56.8;1.6686;2.720297;8879.638
56.9;1.67516;2.731554;8885.529
57;1.68172;2.743427;8892.091
57.1;1.68832;2.754863;8897.346
57.2;1.69488;2.766535;8902.975
57.3;1.70132;2.777791;8907.981
57.4;1.70788;2.789246;8914.008
57.5;1.71444;2.801407;8920.351
57.6;1.72104;2.813048;8926.418
57.7;1.7276;2.824374;8932.869
57.8;1.73416;2.836315;8938.712
57.9;1.74072;2.847681;8944.204
58;1.74736;2.859162;8950.452
58.1;1.754;2.871312;8955.733
58.2;1.76064;2.882956;8961.757
58.3;1.76728;2.894861;8967.262
58.4;1.77396;2.907178;8974.271
58.5;1.78072;2.918889;8980.105
58.6;1.78748;2.93085;8986.173
58.7;1.79416;2.942131;8991.11
58.8;1.80092;2.95401;8997.14
58.9;1.80768;2.965874;9003.173
59;1.8144;2.977636;9008.682
59.1;1.82108;2.9891;9014.564
59.2;1.82764;3.001324;9020.121
59.3;1.83416;3.013767;9024.803
59.4;1.84056;3.025328;9030.144
59.5;1.847;3.036666;9035.503
59.6;1.8534;3.048209;9041.014
59.7;1.8598;3.059067;9046.587
59.8;1.86616;3.069963;9052.894
59.9;1.87252;3.081088;9057.923
60;1.87876;3.092639;9063.255
60.1;1.885;3.103855;9068.376
60.2;1.8912;3.11549;9073.386
60.3;1.8974;3.126469;9078.547
60.4;1.90352;3.137675;9083.46
60.5;1.90964;3.148689;9088.968
60.6;1.91576;3.159786;9093.948
60.7;1.92184;3.170582;9099.912
60.8;1.92784;3.181678;9104.306
60.9;1.93384;3.192075;9108.26
61;1.93976;3.202644;9113.33
61.1;1.94564;3.213535;9116.926
61.2;1.95148;3.224051;9122.541
61.3;1.95724;3.234348;9127.636
61.4;1.96288;3.244465;9131.742
61.5;1.96844;3.254737;9135.725
61.6;1.974;3.264368;9140.314
61.7;1.97952;3.274406;9145.141
61.8;1.98504;3.284311;9149.943
61.9;1.99052;3.29409;9154.794
62;1.996;3.304407;9158.967
62.1;2.00148;3.314965;9164.066
62.2;2.00688;3.32528;9168.234
62.3;2.0122;3.334658;9171.961
62.4;2.01748;3.344169;9175.766
62.5;2.0228;3.353795;9180.24
62.6;2.02808;3.36316;9184.209
62.7;2.03328;3.372462;9187.897
62.8;2.03848;3.381334;9191.746
62.9;2.04368;3.390949;9196.384
63;2.04892;3.400387;9201.431
63.1;2.05412;3.410398;9205.624
63.2;2.0592;3.420236;9209.152
63.3;2.06432;3.429803;9212.808
63.4;2.0694;3.439173;9216.946
63.5;2.07448;3.44884;9220.253
63.6;2.07956;3.458153;9224.311
63.7;2.0846;3.467029;9228.154
63.8;2.08956;3.476026;9232.187
63.9;2.0944;3.485183;9234.986
64;2.09916;3.493542;9238.172
64.1;2.10396;3.502299;9241.551
64.2;2.10876;3.511158;9245.452
64.3;2.11356;3.520002;9249.296
64.4;2.11836;3.529053;9253.213
64.5;2.12316;3.537669;9256.872
64.6;2.12804;3.546296;9260.597
64.7;2.13296;3.555257;9265.626
64.8;2.13792;3.564488;9270.168
64.9;2.14284;3.573443;9273.697
65;2.14776;3.582956;9277.325
65.1;2.1528;3.591955;9280.77
65.2;2.15776;3.601217;9284.389
65.3;2.16272;3.610475;9287.843
65.4;2.1676;3.619767;9289.908
65.5;2.17244;3.628816;9292.895
65.6;2.17724;3.638007;9296.095
65.7;2.18208;3.646969;9299.774
65.8;2.18688;3.65558;9302.79
65.9;2.19152;3.664335;9305.595
66;2.19624;3.6732;9308.542
66.1;2.20096;3.68177;9312.306
66.2;2.20572;3.690139;9315.854
66.3;2.21048;3.698819;9319.533
66.4;2.21524;3.70762;9323.372
66.5;2.22004;3.716899;9326.445
66.6;2.2248;3.726233;9329.23
66.7;2.22956;3.735831;9333.174
66.8;2.23428;3.744553;9336.65
66.9;2.23908;3.753586;9340.534
67;2.24388;3.762442;9344.105
67.1;2.24868;3.771887;9347.02
67.2;2.25356;3.780901;9350.879
67.3;2.2584;3.789316;9353.771
67.4;2.26332;3.798537;9356.946
67.5;2.26832;3.807844;9360.468
67.6;2.27332;3.81688;9364.351
67.7;2.27832;3.826466;9367.608
67.8;2.28336;3.836272;9371.121
67.9;2.28844;3.845954;9375.025
68;2.29356;3.856017;9377.661
68.1;2.29868;3.865835;9380.574
68.2;2.30384;3.875496;9383.96
68.3;2.30912;3.885324;9387.135
68.4;2.3144;3.894918;9390.526
68.5;2.3198;3.905132;9394.872
68.6;2.32516;3.915789;9398.378
68.7;2.3306;3.926088;9401.984
68.8;2.33612;3.93652;9405.343
68.9;2.3416;3.947147;9407.888
69;2.34716;3.957696;9410.655
69.1;2.35276;3.968125;9414.074
69.2;2.35828;3.978763;9416.523
69.3;2.36376;3.989353;9419.492
69.4;2.36916;3.999824;9422.392
69.5;2.3746;4.010889;9425.356
69.6;2.38004;4.021319;9428.589
69.7;2.38544;4.031603;9431.409
69.8;2.3908;4.042833;9434.379
69.9;2.3962;4.053275;9437.042
70;2.40164;4.063569;9440.826
70.1;2.40708;4.074177;9444.059
70.2;2.41256;4.084237;9447.915
70.3;2.418;4.094678;9451.254
70.4;2.42356;4.105256;9454.847
70.5;2.42908;4.1161;9458.135
70.6;2.4346;4.127029;9460.916
70.7;2.44016;4.137906;9463.667
70.8;2.44572;4.149348;9467.096
70.9;2.45128;4.16008;9470.353
71;2.45676;4.171177;9473.401
71.1;2.46228;4.181904;9476.239
71.2;2.4678;4.192318;9480.043
71.3;2.47328;4.203073;9482.738
71.4;2.4788;4.214204;9486.099
71.5;2.4844;4.224498;9489.292
71.6;2.48992;4.235627;9491.76
71.7;2.49544;4.246583;9494.623
71.8;2.50096;4.257359;9498.253
71.9;2.50648;4.268432;9501.733
72;2.51196;4.279352;9504.592
72.1;2.51744;4.290569;9507.091
72.2;2.52288;4.301126;9509.59
72.3;2.52836;4.311889;9512.532
72.4;2.53384;4.322398;9515.771
72.5;2.53924;4.332869;9517.704
72.6;2.5446;4.344114;9520.681
72.7;2.54992;4.354855;9523.919
72.8;2.55528;4.365782;9526.873
72.9;2.5606;4.376111;9529.608
73;2.56588;4.386674;9532.291
73.1;2.57116;4.397032;9534.896
73.2;2.57648;4.40682;9538.262
73.3;2.5818;4.417735;9541.147
73.4;2.58712;4.428231;9544.184
73.5;2.59236;4.438853;9547.01
73.6;2.59756;4.4496;9549.294
73.7;2.60272;4.460375;9551.546
73.8;2.60768;4.470763;9552.734
73.9;2.61268;4.480428;9554.624
74;2.6176;4.490085;9556.767
74.1;2.6224;4.49967;9558.544
74.2;2.62716;4.508723;9560.449
74.3;2.63196;4.518067;9563.518
74.4;2.63676;4.527697;9567.958
74.5;2.6416;4.537507;9571.1
74.6;2.64648;4.547415;9574.595
74.7;2.6514;4.557337;9578.025
74.8;2.65628;4.567379;9580.284
74.9;2.66124;4.577685;9583.262
75;2.66624;4.587174;9586.26
75.1;2.67116;4.597351;9588.353
75.2;2.67608;4.606703;9590.352
75.3;2.68096;4.616889;9592.781
75.4;2.6858;4.626599;9595.27
75.5;2.69064;4.636515;9597.567
75.6;2.69548;4.646527;9599.23
75.7;2.70028;4.6565;9601.718
75.8;2.70508;4.666502;9603.615
75.9;2.70988;4.676215;9606.054
76;2.71472;4.686404;9608.97
76.1;2.71956;4.695953;9611.177
76.2;2.72436;4.705415;9613.438
76.3;2.7292;4.71557;9616.973
76.4;2.734;4.72514;9619.306
76.5;2.73876;4.735522;9621.238
76.6;2.74356;4.74498;9623.496
76.7;2.74832;4.754679;9625.138
76.8;2.75308;4.764953;9627.128
76.9;2.75768;4.774918;9628.054
77;2.76224;4.783901;9628.768
77.1;2.76676;4.793591;9630.918
77.2;2.77132;4.802727;9633.287
77.3;2.77584;4.811319;9636.009
77.4;2.78032;4.821074;9638.505
77.5;2.7848;4.83041;9639.947
77.6;2.78924;4.8394;9642.067
77.7;2.79372;4.848506;9644.591
77.8;2.79816;4.858384;9646.603
77.9;2.80264;4.867265;9649.335
78;2.80712;4.876806;9651.679
78.1;2.81156;4.885981;9653.904
78.2;2.81608;4.895186;9657.011
78.3;2.8206;4.90433;9659.938
78.4;2.82508;4.913376;9661.49
78.5;2.82956;4.922408;9663.551
78.6;2.83404;4.931464;9664.741
78.7;2.83848;4.940756;9666.777
78.8;2.843;4.949955;9668.531
78.9;2.84756;4.959488;9671.444
79;2.85216;4.969387;9673.895
79.1;2.85672;4.979458;9675.431
79.2;2.86136;4.989542;9678.09
79.3;2.86604;4.998828;9680.977
79.4;2.87068;5.008512;9683.143
79.5;2.87536;5.018161;9684.564
79.6;2.88004;5.027847;9686.673
79.7;2.88476;5.037684;9688.625
79.8;2.8894;5.04714;9689.866
79.9;2.89404;5.056562;9690.159
80;2.89864;5.066535;9691.764
80.1;2.90328;5.076548;9693.427
80.2;2.90788;5.086106;9695.934
80.3;2.91252;5.095935;9697.764
80.4;2.91712;5.10577;9699.418
80.5;2.92168;5.11569;9700.8
80.6;2.92624;5.12541;9702.352
80.7;2.93092;5.134974;9704.988
80.8;2.93564;5.144485;9707.264
80.9;2.94032;5.154435;9708.641
81;2.945;5.164779;9710.386
81.1;2.94972;5.174429;9712.885
81.2;2.95452;5.184259;9715.654
81.3;2.95924;5.194354;9717.583
81.4;2.96396;5.20402;9719.084
81.5;2.96872;5.213819;9720.836
81.6;2.97348;5.224105;9722.614
81.7;2.97832;5.23379;9725.037
81.8;2.98316;5.244053;9726.647
81.9;2.98796;5.254324;9727.911
82;2.9928;5.264861;9729.405
82.1;2.99768;5.276037;9732.164
82.2;3.00256;5.286227;9734.422
82.3;3.00744;5.296934;9735.564
82.4;3.01236;5.30704;9737.472
82.5;3.01728;5.317629;9739.332
82.6;3.02216;5.327731;9740.111
82.7;3.02696;5.337656;9741.037
82.8;3.0318;5.347674;9742.147
82.9;3.0366;5.357788;9743.301
83;3.04144;5.368058;9745.575
83.1;3.04628;5.378886;9747.851
83.2;3.05112;5.389606;9750.042
83.3;3.05588;5.400138;9751.384
83.4;3.06068;5.410587;9752.884
83.5;3.06548;5.420832;9754.471
83.6;3.07028;5.430971;9756.351
83.7;3.07512;5.441009;9757.904
83.8;3.07996;5.45117;9759.724
83.9;3.08488;5.46124;9761.891
84;3.0898;5.4717;9764.005
84.1;3.09468;5.482498;9766.132
84.2;3.09956;5.493207;9767.685
84.3;3.10452;5.503614;9769.672
84.4;3.10944;5.514368;9770.818
84.5;3.11436;5.524603;9772.398
84.6;3.1192;5.535451;9773.203
84.7;3.12408;5.54546;9774.467
84.8;3.12896;5.556178;9776.092
84.9;3.13388;5.566591;9778.471
85;3.13872;5.577195;9779.92
85.1;3.14364;5.588162;9781.587
85.2;3.14848;5.598486;9783.059
85.3;3.15328;5.608979;9784.443
85.4;3.15804;5.619094;9784.91
85.5;3.16276;5.629366;9785.471
85.6;3.16744;5.639241;9786.739
85.7;3.17212;5.649069;9788.405
85.8;3.17684;5.65889;9789.842
85.9;3.18152;5.6691;9792.177
86;3.18616;5.679695;9793.174
86.1;3.1908;5.689892;9794.819
86.2;3.19544;5.699188;9796.853
86.3;3.20012;5.708753;9798.256
86.4;3.20476;5.719132;9799.598
86.5;3.20936;5.728522;9801.04
86.6;3.214;5.738435;9802.324
86.7;3.21868;5.748602;9804.765
86.8;3.2234;5.757828;9806.325
86.9;3.228;5.767988;9808.104
87;3.23264;5.77793;9809.235
87.1;3.2372;5.787993;9810.458
87.2;3.24184;5.798152;9812.11
87.3;3.24648;5.808649;9813.692
87.4;3.25108;5.818336;9814.584
87.5;3.25564;5.828431;9814.946
87.6;3.26028;5.838241;9816.74
87.7;3.26492;5.847685;9818.24
87.8;3.26956;5.857827;9820.223
87.9;3.2742;5.867526;9821.903
88;3.27884;5.87736;9823.968
88.1;3.28348;5.887738;9825.519
88.2;3.28808;5.897813;9826.664
88.3;3.29264;5.90785;9826.899
88.4;3.2972;5.917652;9827.707
88.5;3.30184;5.927368;9829.465
88.6;3.30644;5.936915;9830.731
88.7;3.31104;5.946489;9831.689
88.8;3.3156;5.956355;9833.795
88.9;3.32016;5.966103;9834.869
89;3.32472;5.976164;9836.32
89.1;3.32932;5.986352;9838.114
89.2;3.33392;5.996529;9839.325
89.3;3.33844;6.006275;9839.956
89.4;3.343;6.016492;9840.623
89.5;3.3476;6.026096;9842.186
89.6;3.35224;6.035718;9843.481
89.7;3.35688;6.045435;9845.001
89.8;3.36148;6.055319;9846.853
89.9;3.36604;6.065442;9847.654
90;3.3706;6.074854;9849.203
90.1;3.37516;6.084903;9849.855
90.2;3.37976;6.095351;9851.357
90.3;3.38432;6.105262;9852.601
90.4;3.38884;6.115539;9853.22
90.5;3.39344;6.125152;9854
90.6;3.398;6.135099;9855.063
90.7;3.40256;6.145122;9856.291
90.8;3.40712;6.154678;9858.175
90.9;3.41172;6.164536;9860.025
91;3.41632;6.174279;9861.667
91.1;3.42088;6.184527;9861.932
91.2;3.4254;6.194697;9862.108
91.3;3.42996;6.204747;9863.04
91.4;3.43452;6.214836;9864.35
91.5;3.43912;6.224977;9865.069
91.6;3.44372;6.235117;9866.591
91.7;3.44832;6.244766;9868.076
91.8;3.45292;6.255104;9869.57
91.9;3.45756;6.26481;9871.538
92;3.4622;6.275208;9872.852
92.1;3.46676;6.285443;9873.33
92.2;3.4712;6.296377;9873.53
92.3;3.47568;6.30606;9873.203
92.4;3.48012;6.315889;9874.149
92.5;3.4846;6.326022;9875.036
92.6;3.48904;6.335963;9875.664
92.7;3.49336;6.345697;9875.507
92.8;3.49768;6.355019;9876.554
92.9;3.502;6.364603;9877.608
93;3.50636;6.373719;9879.027
93.1;3.51072;6.383594;9881.189
93.2;3.51516;6.393784;9883.03
93.3;3.51952;6.403561;9883.619
93.4;3.52392;6.413568;9884.553
93.5;3.5284;6.423284;9885.994
93.6;3.53288;6.433415;9887.409
93.7;3.53736;6.443074;9888.726
93.8;3.54188;6.452966;9890.863
93.9;3.5464;6.463114;9891.919
94;3.55092;6.473466;9892.625
94.1;3.55532;6.483243;9892.952
94.2;3.55972;6.493124;9892.848
94.3;3.56412;6.503345;9893.329
94.4;3.56856;6.513648;9894.858
94.5;3.573;6.523946;9895.534
94.6;3.57748;6.534042;9896.503
94.7;3.58192;6.543896;9897.053
94.8;3.58636;6.553695;9898.423
94.9;3.5908;6.563234;9899.668
95;3.59532;6.573225;9901.147
95.1;3.59976;6.583541;9902.053
95.2;3.60416;6.593534;9902.212
95.3;3.60856;6.603426;9902.654
95.4;3.613;6.613879;9903.399
95.5;3.61748;6.623975;9905.051
95.6;3.62196;6.634723;9905.412
95.7;3.62644;6.644716;9906.665
95.8;3.63096;6.654704;9908.119
95.9;3.63548;6.664985;9909.578
96;3.64004;6.675597;9910.884
96.1;3.64456;6.686029;9911.712
96.2;3.64912;6.696378;9912.319
96.3;3.65364;6.706609;9912.535
96.4;3.6582;6.717334;9913.627
96.5;3.66276;6.727988;9913.803
96.6;3.66728;6.738793;9914.559
96.7;3.6718;6.749133;9914.507
96.8;3.67632;6.759585;9915.551
96.9;3.6808;6.770086;9916.408
97;3.6852;6.780285;9916.544
97.1;3.68948;6.790435;9915.471
97.2;3.69376;6.800578;9915.268
97.3;3.69804;6.811093;9915.991
97.4;3.70232;6.820898;9916.725
97.5;3.70664;6.831171;9918.085
97.6;3.71092;6.841401;9918.93
97.7;3.7152;6.851128;9920.52
97.8;3.71948;6.861002;9920.899
97.9;3.7238;6.870484;9922.428
98;3.72812;6.8807;9924.634
98.1;3.73244;6.890856;9925.098
98.2;3.73668;6.901263;9925.46
98.3;3.74096;6.910823;9926.151
98.4;3.74524;6.92123;9926.73
98.5;3.74952;6.93145;9927.185
98.6;3.75372;6.941848;9927.272
98.7;3.75788;6.951988;9926.744
98.8;3.762;6.962007;9926.853
98.9;3.7662;6.971635;9928.136
99;3.77036;6.981096;9929.519
99.1;3.77456;6.990961;9930.642
99.2;3.77876;7.000812;9932.08
99.3;3.78292;7.010946;9932.812
99.4;3.78708;7.020669;9933.58
99.5;3.79124;7.030806;9933.77
99.6;3.79552;7.040679;9935.404
99.7;3.79976;7.051056;9936.867
99.8;3.804;7.06099;9936.897
99.9;3.80828;7.071152;9938.047
100;3.81256;7.08153;9939.201
100.1;3.81676;7.091777;9939.851
100.2;3.82088;7.102202;9939.18
100.3;3.82492;7.112279;9938.218
100.4;3.82892;7.122076;9938.081
100.5;3.83292;7.132071;9938.303
100.6;3.83692;7.14207;9938.469
100.7;3.84088;7.151736;9939.111
100.8;3.8448;7.161509;9939.25
100.9;3.84868;7.170749;9939.399
101;3.8526;7.179702;9939.426
101.1;3.85652;7.189302;9940.034
101.2;3.86044;7.198466;9942.24
101.3;3.86444;7.208014;9943.882
101.4;3.86832;7.218059;9944.767
101.5;3.87228;7.227539;9945.273
101.6;3.87624;7.237058;9946.445
101.7;3.88024;7.246847;9947.712
101.8;3.8842;7.25674;9948.412
101.9;3.88816;7.266867;9948.906
102;3.89208;7.276446;9949.308
102.1;3.89596;7.285877;9948.529
102.2;3.89984;7.295276;9948.801
102.3;3.90372;7.304328;9948.998
102.4;3.90756;7.313882;9949.566
102.5;3.91136;7.323462;9949.625
102.6;3.91512;7.333211;9949.273
102.7;3.9188;7.342043;9949.077
102.8;3.92248;7.351718;9949.35
102.9;3.9262;7.36102;9949.818
103;3.93;7.370424;9951.226
103.1;3.93384;7.379684;9952.967
103.2;3.93768;7.388934;9954.43
103.3;3.94168;7.398532;9956.414
103.4;3.94572;7.408419;9957.948
103.5;3.94972;7.418398;9959.465
103.6;3.95372;7.428489;9960.543
103.7;3.95772;7.438704;9960.743
103.8;3.96172;7.44866;9961.165
103.9;3.96576;7.459396;9961.573
104;3.9698;7.469589;9961.826
104.1;3.97384;7.480106;9961.49
104.2;3.9778;7.489812;9960.929
104.3;3.9818;7.500578;9960.88
104.4;3.98572;7.510856;9960.318
104.5;3.98964;7.520954;9960.013
104.6;3.99356;7.53083;9960.16
104.7;3.99748;7.541464;9960.846
104.8;4.0014;7.551911;9961.127
104.9;4.00524;7.562145;9961.127
105;4.00916;7.572036;9961.913
105.1;4.01312;7.582564;9962.536
105.2;4.01704;7.592244;9963.246
105.3;4.02104;7.602362;9964.463
105.4;4.02496;7.612701;9964.128
105.5;4.02892;7.622826;9964.205
105.6;4.03292;7.633239;9964.71
105.7;4.03692;7.644372;9964.467
105.8;4.04096;7.654384;9966.398
105.9;4.04504;7.665119;9967.405
106;4.04904;7.676402;9967.963
106.1;4.05308;7.686672;9967.955
106.2;4.05712;7.697105;9968.121
106.3;4.06112;7.70808;9968.159
106.4;4.06512;7.71847;9967.839
106.5;4.06908;7.729295;9967.262
106.6;4.07308;7.739824;9967.156
106.7;4.07708;7.750576;9967.094
106.8;4.081;7.76154;9966.857
106.9;4.08488;7.772064;9966.508
107;4.08868;7.782616;9965.818
107.1;4.09244;7.792853;9964.674
107.2;4.0962;7.802425;9965.363
107.3;4.09992;7.812879;9964.865
107.4;4.10364;7.822224;9965.286
107.5;4.10732;7.832296;9964.933
107.6;4.11096;7.842118;9965.274
107.7;4.1146;7.852484;9965.699
107.8;4.1182;7.861897;9966.174
107.9;4.12184;7.872093;9965.963
108;4.12548;7.881518;9967.151
108.1;4.12908;7.890884;9968.058
108.2;4.13272;7.900525;9968.936
108.3;4.13628;7.910072;9968.727
108.4;4.1398;7.919465;9969.242
108.5;4.14336;7.929055;9969.648
108.6;4.14692;7.939481;9970.063
108.7;4.15052;7.949013;9970.927
108.8;4.15404;7.958906;9971.031
108.9;4.1576;7.968212;9971.815
109;4.16116;7.978246;9971.54
109.1;4.16476;7.987872;9972.081
109.2;4.16832;7.997332;9973.256
109.3;4.172;8.006999;9974.702
109.4;4.17568;8.016765;9975.387
109.5;4.17936;8.026611;9976.589
109.6;4.183;8.036629;9975.762
109.7;4.1866;8.046891;9976.15
109.8;4.19024;8.057498;9976.237
109.9;4.19392;8.067543;9976.488
110;4.1976;8.077748;9976.799
110.1;4.20128;8.088428;9976.516
110.2;4.20496;8.098221;9976.758
110.3;4.2086;8.108045;9976.561
110.4;4.21228;8.118413;9976.202
110.5;4.21588;8.128603;9975.979
110.6;4.21944;8.1382;9974.568
110.7;4.22296;8.148146;9973.932
110.8;4.22648;8.157954;9974.122
110.9;4.23;8.167925;9974.548
111;4.23356;8.177634;9975.196
111.1;4.23708;8.187841;9975.587
111.2;4.24064;8.19766;9975.754
111.3;4.2442;8.20747;9976.327
111.4;4.24776;8.21704;9976.263
111.5;4.25132;8.227032;9975.985
111.6;4.25488;8.237198;9976.402
111.7;4.25848;8.247224;9976.657
111.8;4.26204;8.25701;9976.69
111.9;4.2656;8.266927;9976.835
112;4.26912;8.276933;9976.464
112.1;4.2726;8.287329;9976.124
112.2;4.27608;8.296703;9976.32
112.3;4.2796;8.306655;9976.486
112.4;4.28308;8.316357;9976.628
112.5;4.28656;8.326373;9976.441
112.6;4.28996;8.3358;9975.805
112.7;4.2934;8.345915;9975.667
112.8;4.29676;8.355577;9975.253
112.9;4.30016;8.365437;9975.402
113;4.3036;8.374975;9975.67
113.1;4.30704;8.384844;9975.797
113.2;4.31052;8.394841;9977.035
113.3;4.314;8.404189;9978.039
113.4;4.31744;8.414037;9978.037
113.5;4.32088;8.424044;9978.537
113.6;4.3244;8.433714;9978.881
113.7;4.32788;8.443281;9978.898
113.8;4.33132;8.453449;9978.351
113.9;4.33476;8.463665;9977.845
114;4.33824;8.473622;9978.081
114.1;4.34172;8.483886;9977.956
114.2;4.34524;8.493736;9977.995
114.3;4.34872;8.503947;9977.378
114.4;4.35216;8.513785;9977.024
114.5;4.35556;8.523258;9976.516
114.6;4.35896;8.532623;9975.386
114.7;4.36236;8.541936;9975.641
114.8;4.36576;8.551329;9975.756
114.9;4.36916;8.56127;9975.965
115;4.37264;8.570674;9976.675
115.1;4.37612;8.580507;9977.14
115.2;4.3796;8.590361;9977.543
115.3;4.38308;8.600409;9977.094
115.4;4.38656;8.610076;9977.119
115.5;4.39004;8.619272;9977.174
115.6;4.39356;8.629249;9976.926
115.7;4.39712;8.639103;9976.933
115.8;4.40068;8.64846;9977.281
115.9;4.40424;8.658408;9977.71
116;4.4078;8.668236;9977.476
116.1;4.41132;8.677857;9976.396
116.2;4.41484;8.687117;9976.432
116.3;4.41836;8.696973;9975.064
116.4;4.42184;8.706436;9974.199
116.5;4.42536;8.715454;9973.357
116.6;4.42888;8.724648;9973.437
116.7;4.43248;8.73363;9973.501
116.8;4.43612;8.74293;9974
116.9;4.4398;8.752375;9974.793
117;4.44348;8.761518;9974.825
117.1;4.4472;8.771082;9975.208
117.2;4.45084;8.780796;9975.124
117.3;4.45464;8.790718;9974.823
117.4;4.4584;8.800183;9975.188
117.5;4.46224;8.809735;9974.763
117.6;4.46608;8.819097;9974.263
117.7;4.46996;8.828408;9973.991
117.8;4.47388;8.83779;9973.012
117.9;4.47776;8.847098;9972.758
118;4.48172;8.856018;9971.406
118.1;4.4856;8.865327;9970.419
118.2;4.48956;8.874573;9970.018
118.3;4.49352;8.884373;9969.46
118.4;4.49752;8.893822;9969.088
118.5;4.50152;8.903157;9968.609
118.6;4.50552;8.912639;9968.291
118.7;4.5096;8.922188;9967.171
118.8;4.51368;8.931177;9966.776
118.9;4.5178;8.940957;9966.256
119;4.522;8.950223;9966.183
119.1;4.52628;8.959309;9966.021
119.2;4.5306;8.969013;9965.8
119.3;4.53492;8.978686;9964.747
119.4;4.53928;8.988354;9964.57
119.5;4.54368;8.998284;9964.132
119.6;4.54808;9.007882;9963.604
119.7;4.55252;9.017732;9961.797
119.8;4.557;9.027547;9960.93
119.9;4.56152;9.037218;9959.552
120;4.56608;9.046919;9958.88
120.1;4.57072;9.056725;9958.238
120.2;4.57552;9.066595;9957.894
120.3;4.58028;9.07594;9957.633
120.4;4.58512;9.086186;9956.345
120.5;4.59004;9.096102;9955.732
120.6;4.595;9.105492;9954.447
120.7;4.59992;9.114976;9952.548
120.8;4.605;9.124878;9951.182
120.9;4.61012;9.133918;9950.224
121;4.61524;9.142654;9948.418
121.1;4.62036;9.151667;9945.931
121.2;4.62552;9.160519;9944.734
121.3;4.63072;9.16952;9944.245
121.4;4.636;9.178767;9943.628
121.5;4.64132;9.188167;9942.78
121.6;4.64668;9.197453;9940.848
121.7;4.65208;9.206811;9939.539
121.8;4.6576;9.21578;9937.75
121.9;4.6632;9.224925;9936.206
122;4.66884;9.234074;9934.86
122.1;4.67456;9.243076;9933.258
122.2;4.68036;9.251847;9931.803
122.3;4.68616;9.261215;9929.398
122.4;4.69204;9.269969;9926.591
122.5;4.698;9.279173;9924.468
122.6;4.70408;9.288452;9922.252
122.7;4.71028;9.297802;9920.797
122.8;4.71648;9.307734;9918.181
122.9;4.72292;9.317277;9916.767
123;4.7294;9.32729;9914.304
123.1;4.736;9.337096;9910.494
123.2;4.74276;9.34686;9907.614
123.3;4.74948;9.356716;9903.362
123.4;4.75628;9.365616;9899.373
123.5;4.76312;9.375302;9896.13
123.6;4.77;9.384841;9893.783
123.7;4.7768;9.394453;9889.758
123.8;4.78364;9.403507;9885.789
123.9;4.79052;9.412715;9882.56
124;4.7974;9.421753;9879.066
124.1;4.80436;9.430728;9875.051
124.2;4.8114;9.439149;9872.635
124.3;4.81852;9.447978;9869.128
124.4;4.82572;9.456445;9863.818
124.5;4.833;9.465163;9858.987
124.6;4.84048;9.473809;9854.446
124.7;4.84804;9.482123;9849.279
124.8;4.8558;9.490273;9844.644
124.9;4.86368;9.498755;9840.263
125;4.87172;9.506759;9834.044
125.1;4.87984;9.514711;9827.136
125.2;4.888001;9.522385;9820.327
125.3;4.89624;9.530059;9814.22
125.4;4.90464;9.537844;9807.703
125.5;4.91316;9.544975;9801.197
125.6;4.92176;9.552083;9793.25
125.7;4.93056;9.558731;9786.056
125.8;4.93956;9.565543;9777.682
125.9;4.94868;9.571749;9770.387
126;4.95796;9.578056;9761.347
126.1;4.967441;9.584303;9751.848
126.2;4.977001;9.589843;9741.832
126.3;4.98668;9.59584;9731.407
126.4;4.99656;9.601464;9722.2
126.5;5.00664;9.606657;9711.197
126.6;5.01696;9.611553;9699.424
126.7;5.027481;9.616241;9687.265
126.8;5.03832;9.620878;9675.995
126.9;5.04936;9.624972;9662.668
127;5.06064;9.62895;9648.021
127.1;5.07208;9.632436;9632.535
127.2;5.08384;9.636353;9617.836
127.3;5.09584;9.639306;9602.002
127.4;5.10824;9.64222;9584.959
127.5;5.12104;9.644359;9566.615
127.6;5.13416;9.646986;9548.088
127.7;5.14752;9.648472;9527.511
127.8;5.16112;9.649563;9505.176
127.9;5.17508;9.651034;9483.415
128;5.18944;9.651544;9459.258
128.1;5.20416;9.651761;9432.255
128.2;5.21912;9.647959;9405.045
128.3;5.2344;9.648097;9376.927
128.4;5.25028;9.646814;9345.337
128.5;5.26688;9.645172;9310.811
128.6;5.28396;9.643221;9272.932
128.7;5.30136;9.640626;9229.752
128.74;5.30856;9.55238;8966.735
128.742;5.30912;9.405606;8693.421
128.744;5.30988;9.14719;8332.027
128.746;5.31112;8.77209;7912.844
128.748;5.31248;8.294585;7449.51
128.75;5.31424;7.736373;6951.284
128.752;5.3162;7.118737;6432.245
128.754;5.31844;6.459925;5905.585
128.756;5.32064;5.775154;5379.553
128.758;5.32288;5.077968;4860.567
128.76;5.325;4.381198;4355.313
128.762;5.32716;3.696054;3869.404
128.764;5.32932;3.03075;3406.552
128.766;5.33156;2.390685;2969.409
128.768;5.33368;1.779877;2560.194