File: Tensile Al7075/raw-CSV/Group1-130Cfor2h.is_tens.raw.csv
Time sec;Extension mm;Strain 1 %;Load N
0;-0.00012;-4.196304e-005;-16.88363
0.2;-0.00012;0.0003543064;-16.88791
0.4;-0.00012;0.0002389621;-16.98525
0.6;-0.00012;0.0004990871;-16.77013
0.8;-3.999999e-005;-5.508259e-005;-16.9049
1;-3.999999e-005;0.000330358;-16.94665
1.2;-3.999999e-005;0.0002471205;-16.74908
1.4;-3.999999e-005;0.0002303015;-17.15846
1.6;-3.999999e-005;0.0002001057;-16.61384
1.8;0;-1.299213e-007;-17.12839
2;0.00008;0.000161727;-17.03686
2.2;0.00024;3.152363e-005;-16.52933
2.4;0.00048;0.0001049981;-16.81826
2.6;0.00076;5.634179e-005;-16.27527
2.8;0.00116;0.000124855;-15.38093
3;0.0016;0.0003173242;-13.69571
3.2;0.0022;0.0003553232;-11.20509
3.4;0.003;0.0004148941;-6.541813
3.6;0.00392;0.001415092;3.697182
3.8;0.00516;0.002568351;22.75894
4;0.00676;0.003762856;48.95893
4.2;0.00876;0.00634197;83.6707
4.4;0.01112;0.008505852;123.5713
4.6;0.01392;0.01090342;168.6804
4.8;0.01716;0.01443437;222.6041
5;0.0208;0.01808429;284.5522
5.2;0.02504;0.02256928;357.491
5.4;0.02976;0.02741204;437.1441
5.6;0.03504;0.0328615;525.8291
5.8;0.04084;0.03872798;623.7519
6;0.04732;0.04517496;731.8178
6.2;0.05456;0.0524947;852.0467
6.4;0.0624;0.06017093;981.3939
6.6;0.07084;0.06813601;1119.137
6.8;0.07992001;0.07698891;1267.91
7;0.08944;0.08722645;1424.014
7.2;0.09948;0.09690636;1587.798
7.4;0.11;0.1080935;1756.491
7.6;0.12084;0.1189561;1931.297
7.8;0.13188;0.130721;2108.136
8;0.14316;0.1424161;2288.307
8.2;0.15448;0.153258;2468.396
8.4;0.16588;0.1641789;2649.203
8.6;0.17728;0.1754485;2830.008
8.8;0.18884;0.1872049;3010.979
9;0.20048;0.1983308;3189.934
9.2;0.21224;0.2099835;3372.041
9.4;0.224;0.2215833;3555.136
9.6;0.23576;0.2329792;3737.042
9.8;0.24752;0.2445434;3917.461
10;0.25896;0.2554399;4095.432
10.2;0.2702;0.2664272;4267.997
10.4;0.28116;0.2775204;4436.043
10.6;0.29188;0.2882608;4598.099
10.8;0.30232;0.2984672;4757.264
11;0.31248;0.3082153;4912.648
11.2;0.32252;0.3184861;5065.044
11.4;0.33232;0.327969;5212.446
11.6;0.34196;0.3365681;5356.026
11.8;0.35132;0.3460685;5497.749
12;0.36024;0.3545586;5631.331
12.2;0.36876;0.3621753;5758.483
12.4;0.37696;0.3698975;5879.797
12.6;0.38468;0.3768175;5993.387
12.8;0.39176;0.3835888;6100
13;0.39844;0.3900941;6199.63
13.2;0.40476;0.3961548;6292.987
13.4;0.41056;0.4019005;6379.382
13.6;0.41596;0.4068819;6459.469
13.8;0.421;0.4118851;6531.803
14;0.42572;0.4165027;6601.252
14.2;0.43008;0.4212325;6664.3
14.4;0.434;0.4252139;6721.355
14.6;0.4376;0.4281302;6773.909
14.8;0.44084;0.4314745;6820.549
15;0.44392;0.434622;6865.053
15.2;0.44672;0.4375427;6905.23
15.4;0.4492;0.4395058;6941.397
15.6;0.45152;0.4417486;6973.676
15.8;0.4536;0.44376;7003.566
16;0.4554;0.4453515;7028.788
16.2;0.45708;0.4464149;7051.91
16.4;0.45852;0.448193;7071.608
16.6;0.45992;0.4490012;7091.273
16.8;0.46104;0.4503635;7106.429
17;0.46204;0.4512645;7119.439
17.2;0.46304;0.4521176;7132.785
17.4;0.46404;0.4528472;7145.721
17.6;0.46504;0.4535113;7159.689
17.8;0.46604;0.4548653;7172.883
18;0.46704;0.4554424;7187.354
18.2;0.46796;0.4563346;7199.652
18.4;0.46896;0.4573523;7212.896
18.6;0.4702;0.4581013;7229.322
18.8;0.47152;0.4598373;7247.747
19;0.47292;0.46086;7267.845
19.2;0.47436;0.4623435;7288.416
19.4;0.47604;0.4636473;7311.589
19.6;0.47784;0.4651773;7339.073
19.8;0.47972;0.4671648;7366.215
20;0.48176;0.4691395;7397.261
20.2;0.48404;0.4711412;7429.954
20.4;0.48652;0.4735649;7466.196
20.6;0.48924;0.4761036;7506.995
20.8;0.49232;0.479159;7551.654
21;0.49564;0.4821715;7599.775
21.2;0.49912;0.4857226;7650.548
21.4;0.50296;0.4888963;7706.098
21.6;0.50684;0.4922379;7761.87
21.8;0.51092;0.4965633;7820.288
22;0.51516;0.5004518;7880.513
22.2;0.51948;0.5043419;7940.256
22.4;0.52392;0.5086463;8003.993
22.6;0.52844;0.5130713;8067.97
22.8;0.53308;0.5176396;8134.264
23;0.53792;0.522621;8202.551
23.2;0.543;0.5273282;8273.099
23.4;0.5482;0.5325649;8345.152
23.6;0.55364;0.5377246;8420.615
23.8;0.55936;0.5437487;8498.678
24;0.56532;0.549316;8579.504
24.2;0.57152;0.5555778;8664.038
24.4;0.57812;0.5619824;8753.671
24.6;0.58504;0.568907;8847.278
24.8;0.59212;0.5760418;8941.033
25;0.59956;0.5836334;9037.092
25.2;0.60736;0.5916887;9135.747
25.4;0.6154001;0.6007925;9237.565
25.6;0.6236001;0.6088718;9338.333
25.8;0.63188;0.618589;9437.367
26;0.64028;0.628619;9534.978
26.2;0.64868;0.6387561;9627.465
26.4;0.65688;0.6486162;9713.317
26.6;0.665;0.6592891;9796.886
26.8;0.67304;0.6700516;9875.081
27;0.68096;0.6810727;9947.624
27.2;0.68868;0.6918449;10013.62
27.4;0.69636;0.7038683;10074.97
27.6;0.70372;0.7153519;10131.73
27.8;0.7108;0.7280132;10183.86
28;0.7176001;0.7397186;10230.11
28.2;0.7240001;0.7509911;10271.09
28.4;0.73008;0.7615317;10307.38
28.6;0.73588;0.7713474;10340.58
28.8;0.7414;0.78127;10370.52
29;0.74652;0.7907321;10397.51
29.2;0.75124;0.7998288;10420.41
29.4;0.75564;0.8082705;10439.87
29.6;0.7596;0.8163771;10457.97
29.8;0.76324;0.8238082;10471.76
30;0.76636;0.8306481;10481.84
30.2;0.769;0.8365113;10488.49
30.4;0.7714;0.8416533;10494.38
30.6;0.7734;0.8462237;10497.52
30.8;0.77488;0.8496535;10496.96
31;0.77604;0.8527355;10494.2
31.2;0.77696;0.8548288;10490.42
31.4;0.7775601;0.8566053;10484.92
31.6;0.77788;0.8584521;10477.22
31.8;0.778;0.8593916;10469.14
32;0.778;0.8597773;10460.42
32.2;0.778;0.8606452;10452.12
32.4;0.778;0.8611769;10444.97
32.6;0.778;0.8618356;10437.79
32.8;0.778;0.8621802;10432.38
33;0.778;0.8628221;10426.7
33.2;0.778;0.8627794;10421.98
33.4;0.778;0.8634289;10417.16
33.6;0.778;0.8636363;10413.52
33.8;0.778;0.863668;10409.44
34;0.778;0.8641436;10405.69
34.2;0.778;0.8643975;10402.25
34.4;0.778;0.864492;10398.85
34.6;0.778;0.8647029;10395.83
34.8;0.778;0.8647267;10392.95
35;0.778;0.8650711;10390.27
35.2;0.778;0.8652801;10387.34
35.4;0.778;0.865583;10385.08
35.6;0.778;0.8654018;10382.36
35.8;0.778;0.8658298;10380.46
36;0.77804;0.8660437;10378.32
36.2;0.77812;0.8660402;10375.71
36.4;0.77828;0.8658623;10374.23
36.6;0.77848;0.8665214;10373.05
36.8;0.77884;0.8666486;10372.78
37;0.77936;0.8667132;10375.24
37.2;0.7800401;0.867504;10384.59
37.4;0.781;0.8688721;10397.96
37.6;0.78228;0.8709041;10415.92
37.8;0.78384;0.8724154;10439.18
38;0.7856001;0.8743871;10464.94
38.2;0.78776;0.8769297;10494.4
38.4;0.79032;0.8807277;10529.36
38.6;0.79332;0.8840217;10568.04
38.8;0.79664;0.8884365;10606.84
39;0.8003601;0.893725;10645.35
39.2;0.80444;0.9004116;10680.73
39.4;0.80876;0.9082332;10708.63
39.6;0.8134;0.9176904;10727.66
39.8;0.81828;0.9289341;10739.64
40;0.82356;0.9419121;10751.64
40.2;0.82912;0.9548475;10763.14
40.4;0.83476;0.9690253;10774.24
40.6;0.84056;0.9820193;10787.35
40.8;0.84652;0.9962326;10800.67
40.854;0.84812;1.00024;10804.24
41.054;0.85424;1.014409;10817.51
41.254;0.86048;1.029063;10831.65
41.454;0.86704;1.045188;10847.03
41.654;0.87396;1.061499;10863.72
41.854;0.88112;1.077595;10880.16
42.054;0.8884801;1.094736;10896.37
42.254;0.89616;1.113014;10913.19
42.454;0.90412;1.131676;10928.88
42.654;0.91248;1.151668;10945.23
42.854;0.9209201;1.171522;10959.39
43.054;0.92956;1.192188;10975.27
43.254;0.93844;1.213147;10991.38
43.454;0.9474;1.234573;11005.52
43.654;0.95644;1.257278;11019.35
43.854;0.9656;1.279019;11033.74
44.054;0.97504;1.300686;11049.12
44.254;0.98492;1.323458;11067.48
44.454;0.99504;1.348672;11082.37
44.654;1.00548;1.372453;11097.32
44.854;1.01616;1.3962;11111.19
45.054;1.02692;1.416926;11126.14
45.254;1.03768;1.436678;11138.97
45.454;1.04848;1.456804;11151.94
45.654;1.0592;1.476495;11163.6
45.854;1.07012;1.496622;11178.65
46.054;1.08104;1.517248;11192.75
46.254;1.09216;1.537925;11206.07
46.454;1.10344;1.55983;11218.41
46.654;1.11488;1.581106;11232.7
46.854;1.12644;1.602903;11245.89
47.054;1.13812;1.624609;11258.37
47.254;1.14996;1.6475;11270.81
47.454;1.16188;1.672235;11284.12
47.654;1.17376;1.696714;11295.59
47.854;1.18536;1.720523;11305.07
48.054;1.19684;1.745056;11314.27
48.254;1.20824;1.77069;11326.86
48.454;1.21944;1.796313;11337.7
48.654;1.23052;1.821118;11347.37
48.854;1.2414;1.845647;11356.29
49.054;1.25212;1.870871;11367.39
49.254;1.26252;1.894202;11375.74
49.454;1.27292;1.916698;11385.74
49.654;1.28332;1.939473;11395.55
49.854;1.29352;1.962998;11405.22
50.054;1.3034;1.985511;11412.95
50.254;1.3128;2.005676;11418.8
50.454;1.32168;2.025261;11422.17
50.654;1.3302;2.042919;11427.04
50.854;1.33852;2.060661;11434.06
51.054;1.34648;2.078865;11441.34
51.254;1.35428;2.096092;11448.28
51.454;1.362;2.113084;11456
51.654;1.36956;2.129432;11463.07
51.854;1.37716;2.145539;11470.95
52.054;1.38464;2.161917;11479.57
52.254;1.39204;2.178629;11486.87
52.454;1.39936;2.194231;11493.86
52.654;1.40676;2.210136;11501.48
52.854;1.41416;2.22587;11509.05
53.054;1.42172;2.242247;11517.38
53.254;1.42936;2.259338;11526.14
53.454;1.43712;2.27653;11534.66
53.654;1.44488;2.294125;11541.69
53.854;1.45248;2.310811;11546.4
54.054;1.46;2.327539;11550.27
54.254;1.46756;2.343949;11555.89
54.454;1.47528;2.360773;11563.6
54.654;1.483;2.378843;11570.29
54.854;1.49088;2.39709;11578.59
55.054;1.49888;2.41514;11586.05
55.254;1.50708;2.432338;11593.57
55.454;1.51552;2.450152;11600.88
55.654;1.52404;2.46856;11609.15
55.854;1.53276;2.487606;11617.05
56.054;1.54184;2.506961;11625.53
56.254;1.55104;2.52699;11632.26
56.454;1.56052;2.546626;11639.15
56.654;1.5702;2.56752;11647.31
56.854;1.57992;2.589014;11653.35
57.054;1.58956;2.610457;11657.14
57.254;1.59936;2.631383;11662.74
57.454;1.60932;2.652321;11669.34
57.654;1.61932;2.674357;11676.85
57.854;1.62948;2.697464;11683.89
58.054;1.63976;2.720083;11690.75
58.254;1.65024;2.74183;11697.6
58.454;1.66076;2.764854;11704.53
58.654;1.67136;2.788271;11711.97
58.854;1.68204;2.812184;11717.73
59.054;1.6928;2.835314;11723.53
59.254;1.70356;2.85863;11731.09
59.454;1.7142;2.88242;11736.16
59.654;1.72452;2.906057;11739.69
59.854;1.73468;2.928072;11743.76
60.054;1.74468;2.950292;11748.88
60.254;1.75468;2.971564;11756.68
60.454;1.76464;2.993622;11763.29
60.654;1.77464;3.016025;11769.96
60.854;1.7848;3.037987;11778.27
61.054;1.79488;3.059141;11785.49
61.254;1.805;3.081674;11792.87
61.454;1.81476;3.103859;11796.34
61.654;1.8242;3.124628;11798.67
61.854;1.83332;3.144481;11800.81
62.054;1.84204;3.163492;11803.77
62.254;1.8504;3.181856;11806.01
62.454;1.85852;3.199634;11809.58
62.654;1.86652;3.217579;11814
62.854;1.87448;3.234737;11820.63
63.054;1.88244;3.251184;11828.37
63.254;1.89044;3.267702;11836.65
63.454;1.89844;3.284593;11843.66
63.654;1.90656;3.30205;11851.21
63.854;1.91484;3.319943;11858.42
64.054;1.92312;3.337825;11864.45
64.254;1.9316;3.355975;11872.91
64.454;1.94016;3.374546;11880.61
64.654;1.94872;3.392715;11885.46
64.854;1.95744;3.411538;11891.01
65.054;1.96624;3.430044;11896.49
65.254;1.97524;3.448329;11904.15
65.454;1.98412;3.467143;11908.35
65.654;1.99292;3.48627;11911.86
65.854;2.00188;3.505463;11916.92
66.054;2.01084;3.525598;11921.21
66.254;2.01976;3.543778;11925.94
66.454;2.02868;3.562439;11931.22
66.654;2.03772;3.580849;11936.87
66.854;2.04692;3.600186;11943.19
67.054;2.05624;3.620683;11949.07
67.254;2.06584;3.641449;11956.67
67.454;2.07564;3.663039;11964.41
67.654;2.08556;3.684137;11970.18
67.854;2.09568;3.705712;11975.92
68.054;2.10592;3.727796;11980.34
68.254;2.11596;3.750191;11983.26
68.454;2.12588;3.771735;11985.52
68.654;2.13592;3.794101;11990.29
68.854;2.14592;3.815498;11994.11
69.054;2.156;3.838276;12000.1
69.254;2.166;3.85946;12004.69
69.454;2.17608;3.88042;12009.51
69.654;2.18604;3.90172;12013.1
69.854;2.19592;3.922355;12016.05
70.054;2.20588;3.944452;12022.56
70.254;2.21576;3.96524;12028.28
70.454;2.22568;3.985805;12033.04
70.654;2.2356;4.007262;12037.65
70.854;2.24536;4.028352;12040.7
71.054;2.25468;4.049378;12042.61
71.254;2.26384;4.070045;12045.11
71.454;2.27292;4.089566;12048.18
71.654;2.28204;4.109145;12052.98
71.854;2.2914;4.129006;12061.36
72.054;2.30076;4.149353;12068.5
72.254;2.31028;4.1695;12075.68
72.454;2.31972;4.189606;12079.74
72.654;2.32896;4.210145;12081.78
72.854;2.33824;4.230423;12086.23
73.054;2.34736;4.251679;12089.84
73.254;2.35644;4.271693;12093.96
73.454;2.36552;4.29145;12097.8
73.654;2.3746;4.311491;12102.46
73.854;2.38348;4.33145;12105.34
74.054;2.39216;4.351897;12109.11
74.254;2.4008;4.371303;12112.57
74.454;2.4092;4.390354;12114.66
74.654;2.41764;4.408838;12118.77
74.854;2.42604;4.427658;12123.72
75.054;2.43428;4.446838;12127.07
75.254;2.4426;4.46553;12132.56
75.454;2.45092;4.484139;12137.56
75.654;2.45928;4.502819;12142.05
75.854;2.46776;4.521333;12147.43
76.054;2.47628;4.539927;12152.6
76.254;2.48484;4.559281;12158.63
76.454;2.49328;4.577565;12162.42
76.654;2.50184;4.595448;12166.16
76.854;2.51048;4.61385;12170.63
77.054;2.519;4.632595;12173.75
77.254;2.52748;4.652244;12177.84
77.454;2.536;4.670783;12181.69
77.654;2.54456;4.689464;12185.06
77.854;2.55328;4.708035;12189.95
78.054;2.562;4.727531;12194.78
78.254;2.57084;4.746664;12200.34
78.454;2.57988;4.768159;12206.5
78.654;2.58892;4.78807;12210.22
78.854;2.59816;4.808027;12215.05
79.054;2.60744;4.828997;12218.67
79.254;2.61664;4.84949;12221.82
79.454;2.6258;4.870879;12224.69
79.654;2.63496;4.892033;12226.71
79.854;2.64408;4.912914;12228.88
80.054;2.65296;4.933148;12230.33
80.254;2.66196;4.953492;12234.07
80.454;2.67096;4.974779;12238.34
80.654;2.67988;4.995422;12240.26
80.854;2.68888;5.015793;12243.39
81.054;2.69792;5.036745;12247.89
81.254;2.70696;5.057546;12252.75
81.454;2.71596;5.078689;12256.29
81.654;2.72508;5.099046;12260
81.854;2.73436;5.119538;12264.55
82.054;2.74368;5.140646;12269.97
82.254;2.753;5.162346;12274.29
82.454;2.76212;5.185239;12274.65
82.654;2.77112;5.205795;12276.1
82.854;2.77996;5.226583;12276.15
83.054;2.7886;5.246446;12277.11
83.254;2.79712;5.266022;12278.75
83.454;2.80548;5.286108;12281.43
83.654;2.8138;5.305723;12284.14
83.854;2.82212;5.325186;12286.78
84.054;2.8304;5.344058;12290.01
84.254;2.83872;5.36251;12295.64
84.454;2.847;5.381958;12299.66
84.654;2.85528;5.400492;12303.14
84.854;2.86368;5.418723;12307.74
85.054;2.87224;5.437467;12312.78
85.254;2.88084;5.456558;12318
85.454;2.8894;5.476791;12322.56
85.654;2.89788;5.496253;12325
85.854;2.90648;5.515174;12328.16
86.054;2.91488;5.533763;12329
86.254;2.92336;5.552365;12332.36
86.454;2.93184;5.571978;12336.45
86.654;2.94036;5.592068;12339.59
86.854;2.94908;5.612783;12344.08
87.054;2.95788;5.632559;12348.03
87.254;2.96664;5.652385;12350.43
87.454;2.97548;5.672353;12355.71
87.654;2.98428;5.69391;12358.43
87.854;2.99312;5.714299;12360.39
88.054;3.00216;5.734911;12364.62
88.254;3.01116;5.756265;12366.22
88.454;3.02024;5.777715;12370.58
88.654;3.02936;5.799669;12373.57
88.854;3.0384;5.820848;12375.46
89.054;3.0472;5.841611;12374.2
89.254;3.05596;5.861641;12375
89.454;3.0648;5.882765;12379.36
89.654;3.07368;5.903555;12383.21
89.854;3.08268;5.924524;12387.32
90.054;3.0918;5.94555;12391.16
90.254;3.10104;5.966621;12394.97
90.454;3.11024;5.988418;12398.18
90.654;3.119;6.010304;12397.13
90.854;3.1276;6.031659;12396.14
91.054;3.13604;6.051869;12395.83
91.254;3.14416;6.071074;12393.54
91.454;3.15232;6.090511;12395.2
91.654;3.16036;6.109727;12397.86
91.854;3.16828;6.12785;12400.41
92.054;3.17612;6.146385;12402.51
92.254;3.18392;6.164633;12404.08
92.454;3.1918;6.182805;12408.05
92.654;3.19964;6.201468;12412.68
92.854;3.2074;6.21984;12416.18
93.054;3.21528;6.238177;12420.39
93.254;3.2232;6.256529;12423.96
93.454;3.23108;6.274334;12427.12
93.654;3.23916;6.293079;12431.88
93.854;3.24728;6.313239;12436.83
94.054;3.25528;6.332317;12439.45
94.254;3.26348;6.35168;12443.42
94.454;3.27188;6.370801;12447.76
94.654;3.2804;6.390561;12451.02
94.854;3.28904;6.411794;12455.93
95.054;3.2976;6.43262;12458.75
95.254;3.3062;6.453024;12460.55
95.454;3.31452;6.473204;12459.56
95.654;3.32288;6.493279;12459.25
95.854;3.33116;6.513096;12459.76
96.054;3.3394;6.533206;12461.81
96.254;3.34772;6.552441;12464.56
96.454;3.35608;6.571348;12466.73
96.654;3.36456;6.590946;12469.87
96.854;3.37324;6.610869;12474.04
97.054;3.38196;6.630957;12478.36
97.254;3.39072;6.651583;12481.74
97.454;3.39972;6.672101;12485.91
97.654;3.40864;6.69269;12488.18
97.854;3.41772;6.715187;12490.68
98.054;3.42692;6.736765;12493.33
98.254;3.43616;6.758698;12496.68
98.454;3.44524;6.780616;12496.4
98.654;3.45428;6.80223;12495.77
98.854;3.46332;6.824528;12496.12
99.054;3.47224;6.846862;12496.5
99.254;3.48112;6.868538;12498.16
99.454;3.48976;6.890182;12497.8
99.654;3.49828;6.91137;12496.49
99.854;3.5068;6.932417;12497.18
100.054;3.51524;6.95371;12498.39
100.254;3.52364;6.974258;12500.58
100.454;3.53208;6.994659;12503.95
100.654;3.54036;7.016303;12504.64
100.854;3.54852;7.036833;12505.39
101.054;3.55648;7.056165;12505.41
101.254;3.56432;7.074299;12506.73
101.454;3.57196;7.092463;12506.28
101.654;3.57936;7.10993;12505.82
101.854;3.587;7.128091;12509.81
102.054;3.5948;7.146388;12514.72
102.254;3.60264;7.165226;12519.11
102.454;3.61052;7.183013;12524.24
102.654;3.61848;7.201707;12528.84
102.854;3.62628;7.220888;12530.48
103.054;3.63412;7.240802;12531.63
103.254;3.64192;7.260443;12533.52
103.454;3.64964;7.28015;12534.73
103.654;3.6574;7.299887;12536.74
103.854;3.66524;7.320117;12539.76
104.054;3.67296;7.339649;12540.91
104.254;3.68076;7.358867;12542.85
104.454;3.68856;7.378092;12544.35
104.654;3.69648;7.397482;12547.95
104.854;3.70436;7.417758;12550.28
105.054;3.71192;7.436971;12549.6
105.254;3.71952;7.456675;12550.19
105.454;3.72716;7.475725;12551.37
105.654;3.73476;7.494502;12552.46
105.854;3.74236;7.512698;12554.25
106.054;3.75008;7.532065;12558.59
106.254;3.75772;7.551738;12560.92
106.454;3.76552;7.571227;12563.6
106.654;3.7734;7.590733;12566.86
106.854;3.78136;7.610068;12569.1
107.054;3.78936;7.630137;12572.81
107.254;3.79752;7.65077;12576.08
107.454;3.8056;7.671175;12578.02
107.654;3.81388;7.691692;12580.47
107.854;3.82216;7.712896;12581.81
108.054;3.83048;7.734232;12582.91
108.254;3.83868;7.75571;12583.08
108.454;3.84656;7.776542;12580.36
108.654;3.85448;7.796595;12579.42
108.854;3.8624;7.816499;12579.91
109.054;3.87036;7.836876;12580.48
109.254;3.87844;7.857874;12583.54
109.454;3.88648;7.878457;12586.39
109.654;3.89452;7.898653;12587.93
109.854;3.90264;7.919224;12590.22
110.054;3.91068;7.939851;12590.57
110.254;3.9186;7.960849;12590.25
110.454;3.9266;7.981423;12592.49
110.654;3.9346;8.001956;12594.27
110.854;3.9424;8.02281;12593.75
111.054;3.95028;8.042835;12594.4
111.254;3.95816;8.063646;12595.3
111.454;3.96616;8.084062;12597.75
111.654;3.97392;8.104306;12598.5
111.854;3.98148;8.124363;12597.18
112.054;3.989;8.144334;12596.46
112.254;3.99652;8.164195;12597.46
112.454;4.004;8.183417;12597.74
112.654;4.01152;8.202339;12598.76
112.854;4.019;8.22107;12601.55
113.054;4.02652;8.240841;12604.29
113.254;4.03412;8.261149;12607.28
113.454;4.04176;8.28186;12609.58
113.654;4.04944;8.301716;12611.41
113.854;4.05716;8.321655;12613.24
114.054;4.0648;8.341178;12614.81
114.254;4.07228;8.361358;12615.6
114.454;4.07988;8.381387;12617.24
114.654;4.08744;8.402018;12617.96
114.854;4.09504;8.421502;12619.51
115.054;4.10264;8.441133;12620.51
115.254;4.11008;8.461636;12620.74
115.454;4.11744;8.48157;12620.55
115.654;4.12468;8.501428;12619.79
115.854;4.13192;8.520344;12620.42
116.054;4.13908;8.539869;12620.45
116.254;4.14632;8.558634;12621.49
116.454;4.15356;8.578322;12623.1
116.654;4.16072;8.597995;12624.77
116.854;4.16792;8.616573;12627.07
117.054;4.17516;8.635421;12628.25
117.254;4.18236;8.654697;12629.04
117.454;4.18964;8.674608;12630.63
117.654;4.19708;8.695028;12634.36
117.854;4.20444;8.714563;12636.78
118.054;4.21184;8.734623;12638.7
118.254;4.21928;8.754579;12640.61
118.454;4.2268;8.775114;12642.1
118.654;4.23448;8.796161;12644.81
118.854;4.242;8.816571;12644.69
119.054;4.24956;8.837778;12645.87
119.254;4.25708;8.858132;12647.47
119.454;4.26456;8.879716;12647.36
119.654;4.27192;8.900329;12645.92
119.854;4.2794;8.920889;12646.04
120.054;4.28688;8.941583;12646.54
120.254;4.29432;8.962316;12648.2
120.454;4.30176;8.984044;12649.22
120.654;4.30912;9.004895;12649.44
120.854;4.31644;9.02501;12649.16
121.054;4.3238;9.045535;12648.74
121.254;4.3312;9.065158;12650.23
121.454;4.33852;9.085754;12651.02
121.654;4.34584;9.107061;12651.78
121.854;4.35308;9.127665;12652.08
122.054;4.36036;9.147737;12652.26
122.254;4.36768;9.167182;12653.34
122.454;4.37488;9.188034;12651.97
122.654;4.38212;9.208392;12653.84
122.854;4.38944;9.228583;12656.67
123.054;4.3968;9.248948;12658.85
123.254;4.40412;9.269748;12659.98
123.454;4.41148;9.290696;12660.99
123.654;4.41856;9.31178;12658.69
123.854;4.42544;9.331905;12656.57
124.054;4.4322;9.351218;12655
124.254;4.43864;9.370853;12650.8
124.454;4.44484;9.389661;12646.73
124.654;4.45092;9.40841;12644.2
124.854;4.45716;9.426541;12644.82
125.054;4.4634;9.444463;12647
125.254;4.46952;9.461943;12647.04
125.454;4.47576;9.479669;12650.9
125.654;4.48208;9.497947;12655.93
125.854;4.48852;9.517104;12660.14
126.054;4.495;9.535248;12664.26
126.254;4.50148;9.554618;12666.53
126.454;4.50792;9.573188;12667.46
126.654;4.51444;9.591477;12669.5
126.854;4.52104;9.6113;12671.97
127.054;4.52768;9.630632;12674.98
127.254;4.53432;9.649777;12676.64
127.454;4.54108;9.669228;12678.75
127.654;4.54788;9.689142;12680.52
127.854;4.55468;9.709107;12680.68
128.054;4.56156;9.729262;12682.03
128.254;4.5686;9.749278;12685.45
128.454;4.57564;9.769759;12687.38
128.654;4.5828;9.790476;12689.03
128.854;4.59012;9.812357;12690.96
129.054;4.59748;9.834726;12692.01
129.254;4.60484;9.856708;12691.03
129.454;4.6122;9.87837;12691.43
129.654;4.61932;9.900927;12689.83
129.854;4.62648;9.922963;12687.66
130.054;4.63344;9.94542;12684.6
130.254;4.6402;9.966683;12679.71
130.454;4.64684;9.987323;12675.56
130.654;4.65348;10.00772;12674.13
130.854;4.66004;10.02844;12674.07
131.054;4.66652;10.04872;12673.43
131.254;4.673;10.06829;12673.07
131.454;4.67944;10.08799;12673.88
131.654;4.6858;10.10769;12673.59
131.854;4.69216;10.12706;12673.14
132.054;4.6986;10.14732;12675.64
132.254;4.70492;10.16661;12676.95
132.454;4.71116;10.18558;12677.02
132.654;4.7174;10.20562;12677.83
132.854;4.72368;10.2257;12679.65
133.054;4.73;10.24582;12681.25
133.254;4.73632;10.2655;12682.11
133.454;4.74276;10.2849;12684.82
133.654;4.74916;10.30494;12687.29
133.854;4.75564;10.32542;12689.69
134.054;4.76212;10.34608;12690.79
134.254;4.7684;10.3666;12689.85
134.454;4.77452;10.38702;12686.63
134.654;4.78064;10.40644;12684.77
134.854;4.78668;10.42628;12683.22
135.054;4.79264;10.44564;12682.62
135.254;4.7984;10.46494;12681.17
135.454;4.80412;10.48359;12679.47
135.654;4.80992;10.50196;12680.26
135.854;4.81568;10.52063;12680.88
136.054;4.82144;10.53951;12681.74
136.254;4.8272;10.55859;12682.07
136.454;4.83304;10.57677;12684.7
136.654;4.83876;10.5953;12685.91
136.854;4.84444;10.61348;12686.25
137.054;4.85008;10.63245;12686.71
137.254;4.85576;10.65102;12687.32
137.454;4.86152;10.67042;12688.97
137.654;4.8672;10.68834;12689.57
137.854;4.87312;10.70686;12691.56
138.054;4.87916;10.72631;12695.78
138.254;4.88528;10.74584;12699.96
138.454;4.89172;10.76723;12706.35
138.654;4.89824;10.78849;12711.37
138.854;4.9048;10.80983;12712.97
139.054;4.91148;10.83226;12714.3
139.254;4.91816;10.8548;12715.46
139.454;4.92488;10.8781;12714.77
139.654;4.9314;10.90076;12712.06
139.854;4.9378;10.92368;12708.34
140.054;4.94412;10.94711;12704.89
140.254;4.950321;10.9696;12700.79
140.454;4.95652;10.99173;12697.23
140.654;4.96276;11.01309;12696.17
140.854;4.96892;11.03464;12695.73
141.054;4.97492;11.05724;12693.92
141.254;4.98076;11.0788;12691.81
141.454;4.986521;11.09986;12688.73
141.654;4.99228;11.12043;12687.4
141.854;4.99788;11.14069;12685.06
142.054;5.00336;11.16063;12682.83
142.254;5.008801;11.18047;12680.7
142.454;5.01408;11.19946;12679.62
142.654;5.01924;11.21783;12677.88
142.854;5.02428;11.23659;12676.05
143.054;5.02924;11.25485;12675.45
143.254;5.03396;11.27231;12672.54
143.454;5.03856;11.28853;12669.42
143.654;5.04316;11.30476;12668.33
143.854;5.0478;11.32044;12669.28
144.054;5.05248;11.33668;12670.82
144.254;5.057281;11.35297;12674.73
144.454;5.06208;11.36966;12678.97
144.654;5.06688;11.38671;12682.42
144.854;5.07184;11.40294;12687.17
145.054;5.07688;11.41989;12692.67
145.254;5.08208;11.43721;12697.72
145.454;5.08736;11.45525;12702.79
145.654;5.09288;11.47442;12707.94
145.854;5.098601;11.49422;12714.55
146.054;5.10448;11.51388;12719.5
146.254;5.1104;11.53492;12723.59
146.454;5.11648;11.55619;12726.87
146.654;5.12276;11.57907;12729.12
146.854;5.12908;11.60242;12730.09
147.054;5.1354;11.62658;12728.7
147.254;5.14188;11.65105;12727.76
147.454;5.14836;11.67649;12725.44
147.654;5.1548;11.70182;12722.78
147.854;5.16112;11.72667;12717.92
148.054;5.16716;11.75202;12710.8
148.254;5.17304;11.77644;12703.57
148.454;5.17876;11.80104;12696.98
148.654;5.18432;11.82398;12691.02
148.854;5.1898;11.84556;12686.54
149.054;5.19508;11.86768;12681.73
149.254;5.20016;11.88856;12677.83
149.454;5.20504;11.90927;12673.52
149.654;5.20968;11.92818;12668.59
149.854;5.21404;11.94633;12662.44
150.054;5.2182;11.96383;12657.04
150.254;5.22228;11.98023;12654.26
150.454;5.22648;11.99666;12653.01
150.654;5.230521;12.01182;12652.82
150.854;5.234521;12.02761;12653.09
151.054;5.238481;12.04259;12653.44
151.254;5.242481;12.0572;12656.17
151.454;5.2466;12.07266;12659.92
151.654;5.250761;12.08764;12664.63
151.854;5.25512;12.10325;12671.73
152.054;5.25968;12.11881;12680.49
152.254;5.2644;12.1349;12689.14
152.454;5.26936;12.15167;12697.35
152.654;5.2746;12.16988;12706.96
152.854;5.27996;12.1891;12714.89
153.054;5.28556;12.20924;12722.35
153.254;5.29128;12.23019;12728.61
153.454;5.29712;12.25182;12732.39
153.654;5.30292;12.27523;12732.13
153.854;5.30868;12.29927;12729.71
154.054;5.31448;12.32327;12726.09
154.254;5.32028;12.34803;12722.57
154.454;5.3262;12.37306;12718.88
154.654;5.33208;12.39829;12715.63
154.854;5.33792;12.42428;12710.98
155.054;5.3436;12.44919;12706.23
155.254;5.34916;12.47403;12699.38
155.454;5.3546;12.49914;12693.87
155.654;5.35992;12.52304;12687.92
155.854;5.36508;12.54547;12681.62
156.054;5.369961;12.56762;12674.62
156.254;5.37468;12.58922;12669
156.454;5.3792;12.6094;12663.71
156.654;5.383521;12.62908;12658.44
156.854;5.38776;12.64777;12655.12
157.054;5.39196;12.66558;12652.49
157.254;5.39584;12.68264;12648.97
157.454;5.399761;12.69965;12647.27
157.654;5.40372;12.71557;12647.5
157.854;5.40768;12.7322;12649.02
158.054;5.41164;12.74802;12651.23
158.254;5.41552;12.76422;12652.2
158.454;5.41956;12.77995;12655.44
158.654;5.4236;12.79619;12659.9
158.854;5.427561;12.81257;12663.73
159.054;5.431561;12.82882;12666.9
159.254;5.4356;12.84473;12669.83
159.454;5.43972;12.861;12674.06
159.654;5.444;12.8778;12678.75
159.854;5.4484;12.89543;12684.17
160.054;5.45288;12.91319;12689.46
160.254;5.45756;12.93237;12695.08
160.454;5.46236;12.95108;12699.5
160.654;5.46732;12.97107;12704.38
160.854;5.47256;12.99203;12710.06
161.054;5.4778;13.01467;12713.77
161.254;5.48308;13.03868;12714.28
161.454;5.48832;13.06252;12711.95
161.654;5.49372;13.08714;12709.99
161.854;5.499;13.11248;12705.43
162.054;5.5042;13.13826;12699.08
162.254;5.509401;13.16299;12692.34
162.454;5.51452;13.18846;12686.28
162.654;5.51968;13.21319;12682.35
162.854;5.52472;13.23842;12678.01
163.054;5.52956;13.26299;12672.05
163.254;5.53432;13.28628;12666.22
163.454;5.539;13.30987;12661.1
163.654;5.54348;13.33282;12655.55
163.854;5.54776;13.35466;12650.04
164.054;5.55196;13.37474;12644.75
164.254;5.55608;13.39438;12641.39
164.454;5.55996;13.41414;12637.62
164.654;5.5636;13.43233;12632.82
164.854;5.56692;13.44958;12626.77
165.054;5.57012;13.46592;12621.23
165.254;5.57324;13.48157;12617.04
165.454;5.576281;13.49594;12614.24
165.654;5.57932;13.51015;12613.21
165.854;5.5824;13.52438;12613.34
166.054;5.5856;13.53792;12616.41
166.254;5.5888;13.55151;12620.03
166.454;5.59216;13.56507;12625.11
166.654;5.5956;13.57906;12631.22
166.854;5.599241;13.59349;12639.62
167.054;5.60316;13.60849;12650.41
167.254;5.60728;13.62501;12662.72
167.454;5.61152;13.64217;12673.12
167.654;5.61596;13.6603;12683.77
167.854;5.6206;13.67903;12693.05
168.054;5.62556;13.69962;12701.69
168.254;5.6306;13.7228;12707.6
168.454;5.63572;13.747;12708.96
168.654;5.64092;13.77299;12707.77
168.854;5.64612;13.79957;12702.51
169.054;5.65148;13.82722;12696.86
169.254;5.656841;13.85685;12690.79
169.454;5.66204;13.88668;12679.76
169.654;5.66704;13.91574;12668.09
169.854;5.672;13.94478;12656.59
170.054;5.676801;13.97189;12646.27
170.254;5.6814;13.99779;12636.3
170.454;5.68588;14.02258;12628.52
170.654;5.6902;14.0467;12620.82
170.854;5.694201;14.06903;12613.57
171.054;5.6978;14.09011;12605.31
171.254;5.701081;14.10883;12596.2
171.454;5.70412;14.12621;12587.91
171.654;5.707;14.14317;12580.91
171.854;5.70972;14.15795;12575.24
172.054;5.71216;14.1718;12568.59
172.254;5.71448;14.1852;12563.47
172.454;5.71672;14.19664;12559.15
172.654;5.719;14.20808;12557.27
172.854;5.72124;14.21869;12555.88
173.054;5.72356;14.2293;12556.96
173.254;5.72604;14.24003;12561.46
173.454;5.7286;14.25066;12567.15
173.654;5.73144;14.26176;12576.38
173.854;5.73456;14.27315;12589.27
174.054;5.738001;14.28585;12604.84
174.254;5.74152;14.29879;12620.57
174.454;5.74536;14.31222;12638.07
174.654;5.7496;14.32775;12656.53
174.854;5.75428;14.34569;12676.85
175.054;5.75932;14.36497;12695.09
175.254;5.76484;14.38817;12710.64
175.454;5.77052;14.41455;12718
175.654;5.77656;14.44544;12716.83
175.854;5.78288;14.48127;12706.74
176.054;5.78932;14.52051;12688.18
176.254;5.79556;14.56322;12660.31
176.454;5.80152;14.60458;12630.84
176.654;5.8072;14.64279;12606.4
176.854;5.81252;14.67775;12586.65
177.054;5.817401;14.70977;12571.83
177.254;5.821841;14.73654;12559.04
177.454;5.825841;14.76112;12548.26
177.654;5.82924;14.78177;12537.1
177.854;5.8322;14.80051;12526.52
178.054;5.83468;14.8164;12515.98
178.254;5.83688;14.83041;12505.59
178.454;5.8388;14.8431;12496.33
178.654;5.840521;14.85376;12487.67
178.854;5.84204;14.86378;12479.52
179.054;5.84348;14.87292;12472.91
179.254;5.84488;14.88072;12467.7
179.454;5.84628;14.88854;12464.33
179.654;5.8478;14.89629;12463.2
179.854;5.84948;14.90358;12465.94
180.054;5.8514;14.9109;12472.44
180.254;5.8536;14.91839;12483.37
180.454;5.856;14.92607;12497.29
180.654;5.8588;14.93542;12515.72
180.854;5.86208;14.94489;12539.11
181.054;5.86588;14.95612;12567.9
181.254;5.87028;14.96896;12601.23
181.454;5.87528;14.98371;12637.02
181.654;5.8808;15.00211;12672
181.854;5.88684;15.02415;12701.58
182.054;5.89332;15.05282;12719.76
182.254;5.90004;15.09103;12713.8
182.454;5.9068;15.13922;12677.27
182.654;5.9134;15.19141;12622.57
182.854;5.91976;15.23961;12575.26
183.054;5.92564;15.2814;12542.44
183.254;5.93096;15.317;12520.34
183.454;5.93588;15.34735;12507.51
183.654;5.9404;15.37397;12499.77
183.854;5.9444;15.39721;12492.49
184.054;5.94808;15.41783;12487.08
184.254;5.9514;15.43707;12483.09
184.454;5.95436;15.45449;12478.14
184.654;5.957001;15.46981;12472.9
184.854;5.95932;15.48372;12467.3
185.054;5.9614;15.49669;12461.11
185.254;5.9632;15.50772;12454.19
185.454;5.96488;15.51834;12448.5
185.654;5.9664;15.52744;12442.93
185.854;5.96796;15.53566;12440.19
186.054;5.96956;15.54444;12438.77
186.254;5.97124;15.55271;12440.2
186.454;5.97312;15.56073;12445.68
186.654;5.9752;15.5697;12453.54
186.854;5.97748;15.5784;12465.04
187.054;5.98016;15.58743;12480.76
187.254;5.9832;15.59767;12501.62
187.454;5.98672;15.60935;12526.88
187.654;5.9906;15.62202;12553.73
187.854;5.995;15.63669;12582.21
188.054;5.999921;15.65428;12610.82
188.254;6.00536;15.67573;12635.61
188.454;6.01108;15.70326;12647.44
188.654;6.017;15.73959;12640.2
188.854;6.023;15.78467;12605.61
189.054;6.02888;15.83367;12553.57
189.254;6.03448;15.87992;12506.1
189.454;6.03964;15.91899;12474.48
189.654;6.04452;15.95124;12455.26
189.854;6.04912;15.97978;12445.58
190.054;6.05344;16.00525;12439.98
190.254;6.05736;16.02778;12435.72
190.454;6.06092;16.04878;12432.35
190.654;6.06408;16.06725;12427.67
190.854;6.06692;16.0838;12422.67
191.054;6.06956;16.09966;12418.98
191.254;6.07204;16.11427;12416.11
191.454;6.07428;16.12759;12412.46
191.654;6.07624;16.13981;12408.02
191.854;6.07812;16.15067;12404.29
192.054;6.08;16.16141;12402.83
192.254;6.08188;16.17148;12402.33
192.454;6.08372;16.18092;12403.4
192.654;6.085761;16.19009;12406.75
192.854;6.08788;16.20047;12413.83
193.054;6.09016;16.20988;12421.41
193.254;6.0926;16.21986;12431.85
193.454;6.09528;16.23057;12444.91
193.654;6.09824;16.24216;12459.68
193.854;6.10156;16.25428;12477.6
194.054;6.10524;16.26867;12498.12
194.254;6.10944;16.28529;12520.7
194.454;6.11396;16.30572;12538.93
194.654;6.11888;16.33002;12550.86
194.854;6.12392;16.36074;12546
195.054;6.12908;16.39936;12519.51
195.254;6.13432;16.44212;12476.7
195.454;6.13932;16.48361;12432.83
195.654;6.14396;16.51997;12399.17
195.854;6.14828;16.55113;12378.54
196.054;6.15228;16.57739;12366.1
196.254;6.15596;16.6002;12358.5
196.454;6.15936;16.62133;12353.99
196.654;6.16248;16.63951;12349.91
196.854;6.16528;16.65723;12346.5
197.054;6.16788;16.67321;12343.47
197.254;6.17036;16.68737;12340.9
197.454;6.17284;16.70058;12341.06
197.654;6.17536;16.71498;12343.46
197.854;6.17772;16.72722;12345.24
198.054;6.18032;16.73943;12350.1
198.254;6.18316;16.75246;12359.03
198.454;6.1862;16.76626;12370.55
198.654;6.18948;16.7812;12382.82
198.854;6.19292;16.79663;12395.5
199.054;6.19656;16.81427;12407.27
199.254;6.20048;16.83374;12416.89
199.454;6.20456;16.85642;12422.4
199.654;6.20872;16.88111;12419.14
199.854;6.21288;16.90925;12405.26
200.054;6.21712;16.93999;12385.92
200.254;6.2212;16.97201;12361.16
200.454;6.225;17.00189;12336.12
200.654;6.22844;17.02871;12314.77
200.854;6.23156;17.05134;12296.91
201.054;6.2344;17.07212;12283.14
201.254;6.23712;17.09055;12275.52
201.454;6.23968;17.1071;12270.29
201.654;6.24216;17.12221;12267.03
201.854;6.24456;17.13705;12265.61
202.054;6.24688;17.15046;12265.16
202.254;6.24924;17.16295;12267.48
202.454;6.25164;17.17592;12270.95
202.654;6.25412;17.18818;12276.27
202.854;6.25672;17.20098;12282.43
203.054;6.2594;17.21418;12289.69
203.254;6.26228;17.22841;12297.99
203.454;6.26544;17.24361;12308.56
203.654;6.26888;17.2608;12319.17
203.854;6.27252;17.27949;12327.28
204.054;6.2764;17.30132;12330.24
204.254;6.28044;17.32614;12326.36
204.454;6.2846;17.35455;12313.03
204.654;6.288801;17.38694;12290.3
204.854;6.29288;17.42031;12261.62
205.054;6.29676;17.452;12236.05
205.254;6.30044;17.48064;12214.16
205.454;6.30396;17.5062;12199.03
205.616;6.30668;17.50428;11974.39
205.62;6.30696;17.30217;11222.09
205.624;6.30836;16.85586;10097.13
205.628;6.3104;16.27121;8771.365
205.632;6.31232;15.62068;7377.12
205.636;6.31408;14.95764;6007.801
205.64;6.31584;14.2995;4729.198
205.644;6.31768;13.67732;3581.511