File: Tensile tests/raw-CSV/Group2-160Cfor2h.is_tens.raw.csv
Time sec;Extension mm;Strain 1 %;Load N
0;0;-3.021269e-005;-50.23726
0.1;0;-0.0001091506;-50.44234
0.2;0;0.0002701775;-50.75659
0.3;0;0.0001707824;-50.5427
0.4;0;0.0002617006;-50.75423
0.5;0;8.243669e-005;-50.97076
0.6;0;2.613651e-005;-50.66379
0.7;0;0.0001461358;-50.78268
0.8;0;0.0003396829;-50.88975
0.9;0;-0.000110449;-50.71461
1;0;0.0001693124;-50.5225
1.1;0.00008;-0.0001562634;-50.81181
1.2;0.00012;-9.611676e-005;-50.26755
1.3;0.00016;-8.786037e-005;-50.39393
1.4;0.0002;-0.0002043072;-50.20858
1.5;0.00024;-0.0001637603;-50.45756
1.6;0.00032;0.0001556416;-50.54419
1.7;0.0004;-0.0002518364;-50.63206
1.8;0.00052;0.0001044129;-50.40103
1.9;0.0006;0.0001495412;-49.88111
2;0.00072;-0.0002098441;-49.99008
2.1;0.00084;-0.0003048782;-49.99656
2.2;0.0009600001;0.0002398468;-49.76549
2.3;0.00108;0.0001021834;-49.44321
2.4;0.00128;5.355159e-005;-49.01987
2.5;0.00144;0.000203024;-48.57751
2.6;0.00164;0.0003132233;-48.62338
2.7;0.00184;-6.524715e-005;-47.99536
2.8;0.00204;0.0002597896;-47.9455
2.9;0.00224;0.0002533952;-47.48035
3;0.00248;0.0001355764;-46.829
3.1;0.00272;0.0001334694;-46.39637
3.2;0.00296;0.0003853993;-45.73415
3.3;0.00328;0.0002568741;-45.33852
3.4;0.0036;0.0003545787;-44.06847
3.5;0.00396;0.0003425739;-43.33259
3.6;0.00432;0.0004562277;-42.27292
3.7;0.00472;0.0004302827;-41.21398
3.8;0.00512;0.0008404311;-39.70506
3.9;0.0056;0.0009532765;-38.28864
4;0.00604;0.0009669719;-36.87635
4.1;0.0066;0.001006784;-34.79149
4.2;0.00716;0.0008815171;-31.937
4.3;0.00776;0.001264814;-29.04725
4.4;0.0084;0.001349877;-25.65489
4.5;0.00912;0.001676163;-21.84366
4.6;0.009840001;0.002383713;-16.61854
4.7;0.01068;0.002285298;-10.82996
4.8;0.0116;0.003180637;-1.481993
4.9;0.0126;0.00379913;10.08527
5;0.01368;0.004491393;23.25031
5.1;0.01488;0.005836889;40.88434
5.2;0.0162;0.00746244;62.89851
5.3;0.01764;0.008519967;88.74322
5.4;0.01928;0.01059614;116.4059
5.5;0.021;0.01276039;145.7942
5.6;0.02292;0.0150256;178.0231
5.7;0.025;0.01797311;213.0141
5.8;0.02712;0.01992021;248.9939
5.9;0.0294;0.02310071;287.2695
6;0.03184;0.0259803;328.3284
6.1;0.03448;0.0288347;371.7172
6.2;0.03728;0.03201787;418.7715
6.3;0.04028;0.03533296;467.5054
6.4;0.04348;0.03887424;520.0781
6.5;0.04688;0.04227962;574.7458
6.6;0.05044;0.04615644;631.6552
6.7;0.0542;0.05041504;690.4586
6.8;0.05816;0.05482268;754.0042
6.9;0.06228;0.05921759;821.1868
7;0.06660001;0.063603;890.418
7.1;0.07108;0.06841664;962.8206
7.2;0.07568;0.0735208;1036.342
7.3;0.08036001;0.07811762;1111.224
7.4;0.0852;0.08340658;1188.668
7.5;0.0902;0.08820447;1268.596
7.6;0.09524;0.09349247;1350.177
7.7;0.10048;0.09932616;1432.967
7.8;0.10588;0.1050285;1518.959
7.9;0.11128;0.1105463;1605.325
8;0.11676;0.1164813;1692.383
8.1;0.12228;0.1223803;1779.717
8.2;0.12796;0.1283172;1868.862
8.3;0.13368;0.1342907;1958.62
8.4;0.13944;0.1399968;2047.911
8.5;0.14532;0.1462299;2138.58
8.6;0.1512;0.1523327;2230.989
8.7;0.15716;0.1587193;2324.386
8.8;0.16316;0.1649813;2417.735
8.9;0.16912;0.1709877;2509.708
9;0.17512;0.1768799;2602.341
9.1;0.18116;0.1829099;2694.371
9.2;0.18724;0.1893032;2787.095
9.3;0.1934;0.1953909;2880.671
9.4;0.19968;0.202101;2977.881
9.5;0.20608;0.2086442;3076.135
9.6;0.21248;0.2149455;3174.548
9.7;0.21896;0.2219896;3272.941
9.8;0.22548;0.228909;3372.277
9.9;0.23196;0.235298;3470.084
10;0.23844;0.2417861;3566.153
10.1;0.24476;0.2479239;3663.308
10.2;0.25096;0.254714;3757.131
10.3;0.25712;0.2603635;3849.857
10.4;0.2632;0.2665489;3941.78
10.5;0.26924;0.2724088;4033.237
10.6;0.27528;0.2781924;4123.403
10.7;0.28124;0.28422;4211.467
10.8;0.2872;0.2900913;4301.631
10.9;0.29316;0.2961701;4391.495
11;0.29896;0.3024221;4478.694
11.1;0.3048;0.3076074;4565.819
11.2;0.3106;0.3142602;4652.239
11.3;0.31636;0.3196934;4738.145
11.4;0.32208;0.3260486;4822.584
11.5;0.32776;0.3316643;4905.629
11.6;0.33336;0.3372976;4988.592
11.7;0.33892;0.3430259;5070.684
11.8;0.34436;0.3484678;5151.791
11.9;0.34972;0.3541064;5231.388
12;0.35496;0.3594253;5308.577
12.1;0.36016;0.3643874;5384.65
12.2;0.3652;0.369725;5458.959
12.3;0.37016;0.374189;5531.27
12.4;0.37504;0.3788245;5602.23
12.5;0.37972;0.3834595;5671.4
12.6;0.38416;0.387824;5737.948
12.7;0.38852;0.3922522;5800.855
12.8;0.39272;0.3960609;5862.654
12.9;0.3968;0.4003295;5921.938
13;0.40072;0.4041663;5978.251
13.1;0.40452;0.4076991;6033.83
13.2;0.40824;0.4114727;6086.442
13.3;0.41176;0.414595;6136.704
13.4;0.4152;0.417959;6185.882
13.5;0.41856;0.4215598;6233.954
13.6;0.4218;0.4244225;6280.901
13.7;0.42488;0.427734;6325.856
13.8;0.4278;0.4311224;6368.387
13.9;0.43064;0.4336893;6409.277
14;0.43336;0.4364928;6448.6
14.1;0.43596;0.4390261;6485.692
14.2;0.43844;0.4419609;6520.612
14.3;0.44084;0.4439353;6555.731
14.4;0.44312;0.4463901;6588.306
14.5;0.44528;0.4484182;6619.116
14.6;0.44732;0.4506848;6648.143
14.7;0.44924;0.4522803;6675.588
14.8;0.45108;0.4542803;6701.469
14.9;0.4528;0.4562099;6725.86
15;0.45432;0.4574241;6747.228
15.1;0.4558;0.4583776;6768.103
15.2;0.4572;0.4601285;6786.942
15.3;0.45848;0.4613433;6804.014
15.4;0.45972;0.4626179;6820.937
15.5;0.4608;0.4636284;6836.84
15.6;0.46184;0.4642977;6850.645
15.7;0.46272;0.4652468;6863.572
15.8;0.46356;0.4663749;6874.617
15.9;0.46432;0.466952;6884.98
16;0.465;0.467255;6894.504
16.1;0.46564;0.4674731;6902.759
16.2;0.46624;0.468269;6910.231
16.3;0.46672;0.4690476;6917.12
16.4;0.4672;0.4692046;6923.072
16.5;0.4676;0.4699549;6928.285
16.6;0.468;0.47007;6933.098
16.7;0.46832;0.4706003;6937.311
16.8;0.46856;0.4707968;6940.581
16.9;0.46884;0.4708382;6942.906
17;0.46904;0.4710511;6945.419
17.1;0.46924;0.4711004;6947.571
17.2;0.4694;0.47141;6949.554
17.3;0.46952;0.4713397;6950.899
17.4;0.46964;0.4714825;6951.918
17.5;0.46972;0.4715428;6952.866
17.6;0.46984;0.4717036;6953.31
17.7;0.46992;0.4717908;6954.052
17.8;0.46996;0.471575;6954.687
17.9;0.47004;0.471388;6954.882
18;0.47008;0.4714215;6954.876
18.1;0.47012;0.4721436;6954.799
18.2;0.47012;0.4717511;6955.12
18.3;0.47016;0.4716801;6954.88
18.4;0.47016;0.4711929;6954.557
18.5;0.4702;0.4718939;6954.695
18.6;0.4702;0.4716279;6954.294
18.7;0.47024;0.4716294;6954.167
18.8;0.47028;0.4714129;6954.078
18.9;0.47028;0.4716661;6954.088
19;0.47032;0.4715902;6953.885
19.1;0.47036;0.4718782;6953.621
19.2;0.4704;0.4717712;6953.751
19.3;0.47044;0.4713868;6953.436
19.4;0.47052;0.4719855;6953.693
19.5;0.4706;0.4716188;6953.707
19.6;0.47072;0.4718462;6953.8
19.7;0.47084;0.471381;6954.617
19.8;0.471;0.471856;6955.603
19.9;0.4712;0.4721066;6957.104
20;0.47144;0.4722557;6959.438
20.1;0.47164;0.4723455;6963.189
20.2;0.47192;0.4726764;6967.158
20.3;0.47224;0.4731218;6971.733
20.4;0.4726;0.4734297;6977.457
20.5;0.473;0.4738065;6983.329
20.6;0.47348;0.4743415;6990.04
20.7;0.474;0.4749906;6997.858
20.8;0.47456;0.4752156;7006.324
20.9;0.47516;0.4758691;7015.377
21;0.47584;0.4767956;7025.386
21.1;0.47656;0.4773242;7036.619
21.2;0.47732;0.478025;7047.973
21.3;0.47816;0.4791864;7060.52
21.4;0.47912;0.480179;7074.162
21.5;0.48016;0.4809792;7089.431
21.6;0.48128;0.481757;7105.989
21.7;0.48248;0.4830429;7123.552
21.8;0.4838;0.4844962;7142.517
21.9;0.48524;0.4857258;7163.972
22;0.48676;0.4875146;7186.288
22.1;0.48836;0.4888049;7210.011
22.2;0.49008;0.4908685;7234.371
22.3;0.49184;0.492758;7260.399
22.4;0.49372;0.4944315;7287.374
22.5;0.49568;0.4963472;7315.624
22.6;0.4978;0.4979752;7345.495
22.7;0.50004;0.5010611;7377.153
22.8;0.50232;0.5030402;7410.363
22.9;0.50472;0.505404;7443.274
23;0.5072;0.5078097;7478.96
23.1;0.50972;0.5097217;7515.178
23.2;0.51228;0.5130327;7551.139
23.3;0.51488;0.5153658;7588.392
23.4;0.5176;0.51833;7626.496
23.5;0.52032;0.5211341;7665.571
23.6;0.52316;0.5237826;7706.13
23.7;0.52608;0.5266469;7746.635
23.8;0.52912;0.5303508;7789.259
23.9;0.53216;0.5331113;7832.634
24;0.53532;0.5362238;7876.428
24.1;0.53852;0.5392842;7921.03
24.2;0.5418;0.5427558;7966.033
24.3;0.54508;0.5459972;8011.314
24.4;0.54852;0.549458;8057.74
24.5;0.55204;0.5529336;8106.589
24.6;0.55564;0.5559769;8155.773
24.7;0.55928;0.5598238;8205.894
24.8;0.56292;0.5634978;8256.213
24.9;0.56664;0.5670376;8307.014
25;0.57048;0.5711644;8358.679
25.1;0.5744;0.5750246;8412.258
25.2;0.5784;0.5790197;8465.886
25.3;0.58248;0.5830418;8520.775
25.4;0.5865601;0.5871075;8574.978
25.5;0.59068;0.591231;8630.06
25.6;0.59484;0.595139;8684.524
25.7;0.59912;0.6000248;8740.371
25.8;0.60344;0.6043159;8797.542
25.9;0.6078;0.6084909;8854.941
26;0.61216;0.6135622;8912.332
26.1;0.6165601;0.6177759;8969.448
26.2;0.6209601;0.6228285;9025.976
26.3;0.62548;0.6277901;9083.409
26.4;0.62996;0.6326867;9139.061
26.5;0.63456;0.6381528;9195.855
26.6;0.6392;0.6435709;9253.033
26.7;0.6438;0.6485558;9308.361
26.8;0.64832;0.6540533;9363.423
26.9;0.65284;0.6594274;9415.549
27;0.65736;0.6646787;9468.248
27.1;0.66188;0.6699902;9519.494
27.2;0.66636;0.6756147;9569.287
27.3;0.6708001;0.6811931;9617.434
27.4;0.67512;0.6866355;9663.847
27.5;0.6794401;0.6921321;9707.53
27.6;0.68376;0.6975736;9751.265
27.7;0.68808;0.7034161;9792.706
27.8;0.69232;0.7094704;9833.924
27.9;0.69644;0.7154578;9873.023
28;0.70056;0.7213556;9910.396
28.1;0.7046;0.7274361;9946.842
28.2;0.70864;0.7340609;9981.525
28.3;0.71256;0.7401485;10014.16
28.4;0.71648;0.7462862;10045.51
28.5;0.72024;0.7522827;10075.37
28.6;0.72396;0.7578227;10103.16
28.7;0.7276;0.7640623;10129.49
28.8;0.73116;0.7702678;10154.75
28.9;0.73468;0.7762467;10179.42
29;0.73808;0.7819063;10202.74
29.1;0.74136;0.7875829;10224.38
29.2;0.74456;0.7930217;10244.53
29.3;0.74764;0.7989461;10263.53
29.4;0.7506;0.8042724;10281.24
29.5;0.75348;0.8096421;10297.77
29.6;0.75624;0.8150482;10313.45
29.7;0.75884;0.820138;10327.15
29.8;0.7613601;0.8248199;10340.02
29.9;0.76376;0.8296719;10352.24
30;0.76608;0.8342433;10363.53
30.1;0.76824;0.8384014;10374.11
30.2;0.77032;0.8430829;10383.08
30.3;0.77228;0.8470631;10391.82
30.4;0.774;0.8508545;10397.98
30.5;0.77564;0.8539979;10403.75
30.6;0.77712;0.8573797;10408.93
30.7;0.77848;0.8606555;10412.71
30.8;0.77968;0.8634749;10415.66
30.9;0.78076;0.8658905;10417.96
31;0.7816801;0.8677479;10419.39
31.1;0.78252;0.8703358;10419.15
31.2;0.7832;0.8716341;10418.98
31.3;0.7838;0.8732532;10417.82
31.4;0.78432;0.8747397;10416.1
31.5;0.78472;0.8759649;10413.91
31.6;0.78504;0.8773001;10410.85
31.7;0.78532;0.8782031;10407.79
31.8;0.78552;0.878603;10404.84
31.9;0.78568;0.8794921;10401.27
32;0.78576;0.8798892;10397.36
32.1;0.7858;0.8805417;10393.7
32.2;0.7858;0.8810875;10389.5
32.3;0.7858;0.8809309;10385.24
32.4;0.7858;0.8815823;10381.36
32.5;0.7858;0.8819131;10378.09
32.6;0.7858;0.8822772;10374.28
32.7;0.7858;0.8823669;10371.42
32.8;0.7858;0.8827908;10367.95
32.9;0.7858;0.8829592;10365.11
33;0.7858;0.8830585;10362.18
33.1;0.7858;0.8835156;10359.75
33.2;0.7858;0.8834573;10357.19
33.3;0.7858;0.883758;10354.28
33.4;0.7858;0.8840169;10352.12
33.5;0.7858;0.8840403;10349.9
33.6;0.7858;0.884181;10347.53
33.7;0.7858;0.8844484;10345.68
33.8;0.7858;0.8842679;10343.61
33.9;0.7858;0.8845447;10341.76
34;0.7858;0.8851068;10340.13
34.1;0.7858;0.8848987;10338.22
34.2;0.7858;0.8851103;10336.57
34.3;0.7858;0.8849608;10334.81
34.4;0.7858;0.8853214;10333.05
34.5;0.7858;0.8855503;10331.87
34.6;0.7858;0.8856022;10330.2
34.7;0.7858;0.8859697;10328.67
34.8;0.7858;0.8858628;10327.14
34.9;0.7858;0.8860471;10325.97
35;0.7858;0.8860759;10324.44
35.1;0.7858;0.8861382;10323.18
35.2;0.7858;0.886115;10321.99
35.3;0.7858;0.8861178;10320.77
35.4;0.7858;0.8864745;10319.32
35.5;0.7858;0.8864;10318.44
35.6;0.7858;0.8862299;10317.06
35.7;0.7858;0.8865536;10316.1
35.8;0.7858;0.8868068;10314.8
35.9;0.7858;0.8867902;10313.89
36;0.7858;0.8869966;10312.37
36.1;0.7858;0.8866859;10311.68
36.2;0.7858;0.8867954;10310.59
36.3;0.7858;0.8867759;10309.73
36.4;0.7858;0.8871029;10308.49
36.5;0.7858;0.8872082;10307.36
36.6;0.7858;0.8867138;10306.66
36.7;0.7858;0.88699;10305.6
36.8;0.7858;0.8869777;10304.34
36.9;0.7858;0.8871307;10303.65
37;0.7858;0.8872154;10302.79
37.1;0.7858;0.8870482;10301.97
37.2;0.7858;0.8875804;10301.13
37.3;0.7858;0.8872184;10299.94
37.4;0.7858;0.887638;10299.08
37.5;0.78584;0.8871133;10298.78
37.6;0.78592;0.8875728;10297.83
37.7;0.786;0.8872322;10296.76
37.8;0.78612;0.8873471;10296.85
37.9;0.78628;0.8874775;10295.9
38;0.78648;0.8875686;10296.09
38.1;0.78668;0.8876536;10296.51
38.2;0.78696;0.8878366;10297.47
38.3;0.7872401;0.8882723;10299.82
38.4;0.7876;0.888548;10303.79
38.5;0.7880401;0.8892105;10309.9
38.6;0.78856;0.8898457;10317.5
38.7;0.78916;0.8904323;10326.83
38.8;0.78984;0.8912928;10337.04
38.9;0.7906;0.8922228;10348.92
39;0.79144;0.8931748;10361.61
39.1;0.79236;0.8946382;10375.4
39.2;0.79344;0.8957354;10390.28
39.3;0.79456;0.8967312;10406.21
39.4;0.7958;0.8986907;10423.57
39.5;0.7972;0.9002591;10441.86
39.6;0.79868;0.9020803;10461.9
39.7;0.80024;0.9043063;10481.78
39.8;0.80192;0.9063477;10502.46
39.9;0.80368;0.9088903;10523.29
40;0.80556;0.9113953;10543.98
40.1;0.8075601;0.913897;10564.39
40.2;0.80964;0.9173739;10584.41
40.3;0.81188;0.9205886;10603.08
40.4;0.81424;0.9248939;10619.38
40.5;0.81672;0.9292954;10634.83
40.6;0.81928;0.9346462;10646.81
40.7;0.8219601;0.9401621;10656.61
40.8;0.82468;0.9469354;10665
40.9;0.82744;0.9539841;10671.49
41;0.83028;0.9611234;10677.39
41.1;0.83324;0.9680842;10683.78
41.2;0.83624;0.975176;10690.52
41.3;0.83928;0.9824957;10697.43
41.4;0.84236;0.9902628;10704.59
41.5;0.84552;0.9976673;10712.27
41.534;0.8466;1.000025;10714.74
41.536;0.84668;1.000178;10714.86
41.636;0.84988;1.007783;10721.54
41.736;0.85312;1.015795;10729.66
41.836;0.85648;1.02404;10738.55
41.936;0.8599601;1.031921;10747.59
42.036;0.86356;1.04041;10756.53
42.136;0.86724;1.049175;10766.44
42.236;0.871;1.058567;10776.62
42.336;0.8748;1.067735;10785.32
42.436;0.87868;1.076899;10793.65
42.536;0.88264;1.08655;10802.78
42.636;0.88668;1.096026;10812.66
42.736;0.89084;1.106033;10820.97
42.836;0.8950401;1.11586;10830.03
42.936;0.89932;1.126658;10838.92
43.036;0.90372;1.137549;10847.85
43.136;0.90812;1.148178;10856.08
43.236;0.91252;1.159388;10864.58
43.336;0.91692;1.17041;10872.99
43.436;0.9214;1.181304;10881.4
43.536;0.92592;1.191999;10889.87
43.636;0.93048;1.202848;10898.68
43.736;0.93504;1.213802;10906.61
43.836;0.93964;1.22479;10914.79
43.936;0.94424;1.236062;10921.88
44.036;0.94896;1.247653;10929.71
44.136;0.95368;1.259096;10937.68
44.236;0.95848;1.271334;10946
44.336;0.96328;1.283205;10954.76
44.436;0.96812;1.29539;10962.66
44.536;0.97304;1.307192;10971.28
44.636;0.97804;1.318785;10978.8
44.736;0.98308;1.331318;10987.42
44.836;0.98816;1.343286;10994.6
44.936;0.99332;1.35641;11002.87
45.036;0.99864;1.369297;11010.71
45.136;1.00392;1.382192;11018.21
45.236;1.00924;1.395198;11026.06
45.336;1.01456;1.408049;11033.55
45.436;1.01988;1.421371;11040.47
45.536;1.02512;1.435005;11046.95
45.636;1.03032;1.447822;11052.38
45.736;1.03544;1.461247;11057.64
45.836;1.04052;1.474274;11063.51
45.936;1.04548;1.48614;11068.15
46.036;1.05028;1.497741;11072.8
46.136;1.055;1.509156;11077.93
46.236;1.05972;1.520096;11083.76
46.336;1.06436;1.531096;11089.36
46.436;1.06896;1.542636;11094.96
46.536;1.07352;1.553657;11100.57
46.636;1.078;1.565289;11105.88
46.736;1.08252;1.576734;11111.33
46.836;1.087;1.587522;11116.88
46.936;1.09144;1.59808;11121.56
47.036;1.09584;1.608446;11127.42
47.136;1.10028;1.619058;11133.21
47.236;1.10468;1.629564;11138.88
47.336;1.10908;1.639769;11144.5
47.436;1.11344;1.650006;11149.61
47.536;1.1178;1.660353;11154.41
47.636;1.12212;1.671427;11159.37
47.736;1.12648;1.681431;11163.95
47.836;1.13092;1.691594;11169.53
47.936;1.13528;1.701907;11174.43
48.036;1.13964;1.712354;11178.84
48.136;1.14388;1.721838;11183.66
48.236;1.14816;1.732066;11188.48
48.336;1.1524;1.741942;11192.76
48.436;1.15664;1.751875;11196.9
48.536;1.16084;1.761417;11201.24
48.636;1.16504;1.771632;11205.97
48.736;1.1692;1.781568;11209.55
48.836;1.17332;1.790787;11213.28
48.936;1.17736;1.800297;11216.8
49.036;1.18136;1.809133;11219.6
49.136;1.18532;1.817549;11223.12
49.236;1.18928;1.827086;11227.88
49.336;1.1932;1.835449;11232.14
49.436;1.19712;1.84439;11236.1
49.536;1.201;1.853386;11240.16
49.636;1.20484;1.862239;11243.66
49.736;1.20864;1.871501;11246.87
49.836;1.2124;1.880354;11250.11
49.936;1.21624;1.888906;11254.51
50.036;1.22012;1.897054;11258.64
50.136;1.22392;1.905385;11262.63
50.236;1.22768;1.913793;11265.88
50.336;1.23144;1.921407;11269.51
50.436;1.23516;1.929237;11273.7
50.536;1.23892;1.937323;11277.98
50.636;1.24268;1.945646;11281.78
50.736;1.24648;1.953447;11286.43
50.836;1.25028;1.961871;11290.75
50.936;1.25412;1.97004;11295.62
51.036;1.25808;1.978778;11300.12
51.136;1.26212;1.987307;11305.77
51.236;1.2662;1.996366;11310.97
51.336;1.2704;2.004914;11316.06
51.436;1.27464;2.014156;11320.8
51.536;1.27896;2.022824;11326.42
51.636;1.28328;2.031542;11331.07
51.736;1.28768;2.041006;11335.65
51.836;1.29204;2.050142;11339.06
51.936;1.29652;2.059185;11343.45
52.036;1.301;2.068892;11347.3
52.136;1.3054;2.077949;11349.72
52.236;1.30968;2.087744;11350.86
52.336;1.31392;2.096583;11352.27
52.436;1.31816;2.105169;11354.54
52.536;1.32244;2.113967;11357.59
52.636;1.32672;2.12209;11361.77
52.736;1.33108;2.131193;11366.1
52.836;1.3354;2.140255;11370.37
52.936;1.3398;2.148481;11374.33
53.036;1.34428;2.158094;11378.76
53.136;1.34884;2.166984;11384.09
53.236;1.35348;2.176399;11389.16
53.336;1.35816;2.186236;11393.96
53.436;1.36296;2.196041;11398.53
53.536;1.36784;2.205773;11403.85
53.636;1.3728;2.215725;11408.95
53.736;1.37776;2.225815;11413.1
53.836;1.38276;2.235618;11417.07
53.936;1.38776;2.245736;11420.22
54.036;1.3928;2.255525;11423.54
54.136;1.39792;2.265777;11427.57
54.236;1.40316;2.276858;11431.67
54.336;1.40832;2.287597;11434.24
54.436;1.41352;2.298052;11438.44
54.536;1.4188;2.30863;11442.84
54.636;1.42412;2.319239;11447.28
54.736;1.42952;2.33027;11451.98
54.836;1.43492;2.341022;11456.33
54.936;1.44036;2.351814;11459.47
55.036;1.44572;2.362469;11462.36
55.136;1.45108;2.37334;11464.86
55.236;1.45648;2.384862;11468.27
55.336;1.46184;2.395706;11472.03
55.436;1.46724;2.406883;11476.1
55.536;1.47252;2.418379;11479.37
55.636;1.4778;2.429366;11482.21
55.736;1.48312;2.440323;11485.96
55.836;1.48848;2.451405;11490.32
55.936;1.49388;2.462162;11493.71
56.036;1.4994;2.474065;11498.89
56.136;1.505;2.485574;11504.38
56.236;1.51068;2.497756;11510.08
56.336;1.51632;2.510452;11514.57
56.436;1.522;2.522161;11518.87
56.536;1.52772;2.534178;11522.25
56.636;1.53344;2.546433;11525.91
56.736;1.53916;2.558906;11528.92
56.836;1.54476;2.571315;11531.43
56.936;1.5504;2.58315;11534.62
57.036;1.556;2.595903;11538.19
57.136;1.56156;2.608305;11541.23
57.236;1.56712;2.620422;11544.52
57.336;1.5726;2.632512;11547.64
57.436;1.57796;2.64407;11549.67
57.536;1.58328;2.655595;11552.31
57.636;1.5886;2.666949;11555.19
57.736;1.59392;2.678384;11558.59
57.836;1.59916;2.690488;11563.24
57.936;1.60436;2.702194;11566.13
58.036;1.60948;2.713379;11569.42
58.136;1.6146;2.724502;11573.01
58.236;1.61972;2.735675;11576.37
58.336;1.62472;2.746384;11579.31
58.436;1.62968;2.756969;11582.12
58.536;1.63464;2.767508;11584.78
58.636;1.63956;2.778369;11588.69
58.736;1.64448;2.789171;11592.67
58.836;1.64928;2.800055;11595.37
58.936;1.65408;2.810971;11598.43
59.036;1.65888;2.821768;11601.69
59.136;1.66364;2.831912;11605.62
59.236;1.6684;2.842602;11608.82
59.336;1.67308;2.852733;11611.25
59.436;1.67772;2.86222;11613.59
59.536;1.6824;2.872253;11617
59.636;1.68696;2.881969;11619.39
59.736;1.69152;2.891899;11622.26
59.836;1.696;2.901552;11626.01
59.936;1.70044;2.911464;11628.66
60.036;1.7048;2.921328;11630.87
60.136;1.70908;2.930488;11632.69
60.236;1.71324;2.939749;11633.44
60.336;1.71736;2.948544;11635.05
60.436;1.72148;2.957289;11637.14
60.536;1.72556;2.966167;11639.74
60.636;1.72964;2.974862;11643
60.736;1.73368;2.983522;11645.95
60.836;1.73764;2.991735;11648.64
60.936;1.74156;3.000282;11651.48
61.036;1.74552;3.009166;11654.78
61.136;1.74944;3.017532;11657.58
61.236;1.75332;3.025748;11660.79
61.336;1.7572;3.033738;11663.24
61.436;1.76108;3.041694;11666.16
61.536;1.76496;3.050143;11668.8
61.636;1.76884;3.057821;11671.9
61.736;1.77272;3.065721;11675.02
61.836;1.77656;3.074185;11678.58
61.936;1.7804;3.082142;11681.22
62.036;1.78424;3.089905;11684.55
62.136;1.78808;3.098068;11688.09
62.236;1.79192;3.106645;11691.54
62.336;1.79588;3.115481;11695.23
62.436;1.79984;3.124235;11698.72
62.536;1.80384;3.132493;11703.08
62.636;1.80784;3.140584;11706.1
62.736;1.81188;3.14891;11709.28
62.836;1.816;3.157305;11712.98
62.936;1.82012;3.165545;11716.37
63.036;1.82428;3.173789;11719.95
63.136;1.82848;3.182041;11723.81
63.236;1.83268;3.190891;11727.37
63.336;1.83692;3.199604;11730.04
63.436;1.84108;3.208093;11732.88
63.536;1.84524;3.217464;11734.12
63.636;1.8494;3.226245;11735.77
63.736;1.8536;3.234861;11738.16
63.836;1.85784;3.24389;11740.99
63.936;1.86212;3.252821;11743.83
64.036;1.8664;3.262319;11747.01
64.136;1.87072;3.271247;11750.38
64.236;1.87504;3.279837;11753.19
64.336;1.87948;3.288657;11756.78
64.436;1.88392;3.298262;11760.08
64.536;1.88836;3.307236;11762.49
64.636;1.8928;3.317018;11764.74
64.736;1.89732;3.326327;11767.24
64.836;1.90192;3.33581;11769.79
64.936;1.9066;3.345406;11773.45
65.036;1.91132;3.35505;11777.13
65.136;1.91604;3.364917;11780.83
65.236;1.92084;3.374894;11783.6
65.336;1.9256;3.385318;11786.79
65.436;1.93052;3.395646;11790.19
65.536;1.93556;3.40663;11793.93
65.636;1.94064;3.417306;11797.35
65.736;1.94576;3.428631;11799.92
65.836;1.95096;3.439616;11803.21
65.936;1.95616;3.451082;11806.13
66.036;1.96148;3.46179;11810.25
66.136;1.9668;3.473043;11813.29
66.236;1.972;3.483843;11814.02
66.336;1.97712;3.495503;11813.91
66.436;1.9822;3.506392;11814.71
66.536;1.98736;3.517449;11816.05
66.636;1.99252;3.529086;11818.16
66.736;1.99772;3.541112;11820.29
66.836;2.00284;3.552472;11822.94
66.936;2.00796;3.563494;11825.02
67.036;2.01308;3.574684;11828.01
67.136;2.01824;3.585599;11831.24
67.236;2.0234;3.596941;11833.19
67.336;2.02856;3.607888;11835.95
67.436;2.03372;3.619114;11838.17
67.536;2.03892;3.630817;11840.32
67.636;2.04412;3.642104;11842.67
67.736;2.04936;3.65421;11845.97
67.836;2.05456;3.66496;11849.42
67.936;2.0598;3.677123;11852.38
68.036;2.06504;3.688627;11854.8
68.136;2.07024;3.699882;11857.41
68.236;2.07548;3.711971;11859.1
68.336;2.08072;3.723329;11861.74
68.436;2.086;3.735404;11864.24
68.536;2.09124;3.747089;11866.35
68.636;2.0964;3.758077;11869.1
68.736;2.10156;3.76996;11871.42
68.836;2.10652;3.780691;11872.38
68.936;2.11136;3.791588;11872.2
69.036;2.11624;3.801935;11873.18
69.136;2.12108;3.813201;11875.46
69.236;2.12592;3.823724;11877.54
69.336;2.13072;3.834932;11879.52
69.436;2.13556;3.845761;11882.22
69.536;2.14032;3.856761;11884.98
69.636;2.14508;3.866857;11888.19
69.736;2.14984;3.877673;11891.21
69.836;2.15456;3.887367;11893.73
69.936;2.15928;3.897937;11895.74
70.036;2.164;3.9081;11898.78
70.136;2.16876;3.918476;11901.35
70.236;2.17344;3.928494;11903.73
70.336;2.17808;3.939252;11905.54
70.436;2.18264;3.949548;11907.42
70.536;2.18724;3.960028;11910.35
70.636;2.19176;3.969656;11912.77
70.736;2.19632;3.979886;11915.47
70.836;2.20084;3.990009;11917.69
70.936;2.20532;3.999856;11919.33
71.036;2.20976;4.009885;11921.04
71.136;2.21424;4.019452;11923.6
71.236;2.21872;4.029247;11925.56
71.336;2.22316;4.039118;11927.77
71.436;2.2276;4.048803;11929.8
71.536;2.23204;4.058085;11933.1
71.636;2.23636;4.067492;11935.06
71.736;2.24056;4.076985;11936.01
71.836;2.24472;4.086404;11936.55
71.936;2.2488;4.095131;11936.75
72.036;2.25284;4.104048;11938.04
72.136;2.25696;4.112861;11940.13
72.236;2.26096;4.121915;11941.4
72.336;2.26504;4.130473;11943.68
72.436;2.26908;4.139019;11946.42
72.536;2.2732;4.148378;11949.13
72.636;2.27728;4.157275;11952.79
72.736;2.2814;4.166174;11956.97
72.836;2.28552;4.174907;11959.67
72.936;2.2896;4.183667;11962.78
73.036;2.29376;4.192427;11966.25
73.136;2.29796;4.20084;11969.47
73.236;2.30224;4.209955;11972.92
73.336;2.30652;4.219027;11976.14
73.436;2.31084;4.22822;11978.99
73.536;2.31516;4.238002;11981.91
73.636;2.31956;4.247008;11984.66
73.736;2.32388;4.257208;11987.67
73.836;2.32824;4.266275;11989.74
73.936;2.33248;4.275552;11991.47
74.036;2.33672;4.28479;11992.73
74.136;2.34092;4.293757;11993.34
74.236;2.3452;4.302742;11995.43
74.336;2.34944;4.311874;11996.85
74.436;2.3536;4.320742;11998.09
74.536;2.3578;4.329903;11999.31
74.636;2.36204;4.338394;12001.07
74.736;2.36624;4.347639;12003.41
74.836;2.37036;4.35682;12005.19
74.936;2.37448;4.365905;12006.36
75.036;2.37856;4.374891;12007.84
75.136;2.38264;4.383491;12009.46
75.236;2.3868;4.392511;12011.82
75.336;2.391;4.401083;12013.94
75.436;2.39524;4.409807;12017.16
75.536;2.39952;4.418219;12020.01
75.636;2.4038;4.427168;12022.97
75.736;2.40824;4.436496;12026.22
75.836;2.41264;4.445581;12029.72
75.936;2.41708;4.455157;12033.34
76.036;2.42148;4.464788;12035.49
76.136;2.42588;4.474114;12038.01
76.236;2.43036;4.483054;12040.27
76.336;2.43488;4.492863;12043.07
76.436;2.43952;4.502185;12045.8
76.536;2.44412;4.511557;12048.05
76.636;2.4488;4.521601;12050.28
76.736;2.45352;4.531328;12053.09
76.836;2.45832;4.540842;12056.09
76.936;2.46316;4.550949;12059.48
77.036;2.46804;4.5615;12062.54
77.136;2.47292;4.571443;12064.58
77.236;2.47792;4.581779;12066.87
77.336;2.48296;4.59213;12069.31
77.436;2.48804;4.602322;12071.63
77.536;2.49324;4.61272;12073.84
77.636;2.49848;4.623609;12075.92
77.736;2.50364;4.633938;12077.45
77.836;2.50876;4.644633;12078.55
77.936;2.51388;4.656245;12079.65
78.036;2.519;4.666831;12080.87
78.136;2.52416;4.678096;12082.44
78.236;2.52932;4.688147;12083.45
78.336;2.5344;4.698502;12084.27
78.436;2.53952;4.709029;12084.83
78.536;2.54468;4.71908;12086.63
78.636;2.54992;4.729494;12089.39
78.736;2.55512;4.740298;12091.99
78.836;2.56036;4.751102;12094.06
78.936;2.56568;4.762308;12096.6
79.036;2.57108;4.773489;12099.44
79.136;2.57656;4.784808;12102.23
79.236;2.58204;4.795886;12104.37
79.336;2.58752;4.807105;12106.17
79.436;2.59312;4.818136;12108.39
79.536;2.59872;4.82913;12111.78
79.636;2.60428;4.840608;12113.87
79.736;2.60976;4.851146;12114.86
79.836;2.6152;4.862703;12115.09
79.936;2.62052;4.873984;12115.25
80.036;2.62596;4.885004;12116.01
80.136;2.63136;4.896117;12117.14
80.236;2.63672;4.906898;12118.91
80.336;2.64204;4.917398;12120.06
80.436;2.64732;4.928084;12121.47
80.536;2.65268;4.939158;12123.97
80.636;2.65808;4.949797;12126.73
80.736;2.66352;4.961134;12129.34
80.836;2.66892;4.972439;12131.82
80.936;2.6744;4.983202;12133.56
81.036;2.67984;4.993747;12135.93
81.136;2.68532;5.004581;12137.43
81.236;2.69072;5.015137;12139.58
81.336;2.69612;5.0254;12141.45
81.436;2.70152;5.036018;12143.62
81.536;2.70684;5.046849;12144.71
81.636;2.71212;5.057157;12145.29
81.736;2.71744;5.067956;12146.3
81.836;2.72276;5.078691;12147.65
81.936;2.72816;5.089196;12149.79
82.036;2.73352;5.100068;12152.37
82.136;2.73884;5.109728;12154.64
82.236;2.74416;5.119931;12156.53
82.336;2.74948;5.130138;12158.61
82.436;2.7548;5.139901;12160.71
82.536;2.76012;5.149902;12162.16
82.636;2.76536;5.159674;12163.54
82.736;2.77044;5.169755;12163.33
82.836;2.77544;5.180039;12162.85
82.936;2.78036;5.189214;12163.39
83.036;2.78524;5.198863;12164.18
83.136;2.79016;5.208026;12165.79
83.236;2.79508;5.21754;12168.56
83.336;2.80008;5.226973;12171.65
83.436;2.80512;5.23646;12174.57
83.536;2.81024;5.246063;12178.3
83.636;2.8154;5.255449;12181.54
83.736;2.8206;5.265269;12184.54
83.836;2.8258;5.274986;12188.53
83.936;2.83104;5.285324;12191.58
84.036;2.83624;5.29473;12194.07
84.136;2.84136;5.30469;12195.27
84.236;2.84644;5.31444;12196
84.336;2.85152;5.323838;12196.84
84.436;2.8566;5.333508;12198.06
84.536;2.86172;5.34302;12199.43
84.636;2.8668;5.352875;12201.56
84.736;2.87188;5.362926;12203.52
84.836;2.87692;5.372851;12205.2
84.936;2.88192;5.383127;12206.24
85.036;2.88696;5.393266;12207.76
85.136;2.892;5.403132;12208.99
85.236;2.89704;5.412699;12210.96
85.336;2.90204;5.42216;12211.74
85.436;2.90696;5.431739;12212.68
85.536;2.91188;5.440919;12213.5
85.636;2.9168;5.45041;12215.81
85.736;2.92168;5.459695;12217.43
85.836;2.92656;5.469408;12219.24
85.936;2.93148;5.47903;12221.31
86.036;2.93628;5.488886;12222.95
86.136;2.9412;5.498846;12224.53
86.236;2.94608;5.509099;12226.36
86.336;2.95092;5.518759;12227.2
86.436;2.95576;5.52841;12229.31
86.536;2.96064;5.537687;12231.91
86.636;2.96552;5.547173;12234.75
86.736;2.97044;5.55687;12237.19
86.836;2.97532;5.566481;12239.2
86.936;2.98024;5.576244;12241.13
87.036;2.98516;5.58621;12243.31
87.136;2.99016;5.596629;12245.06
87.236;2.99516;5.606714;12247.25
87.336;3.00016;5.616924;12248.96
87.436;3.00516;5.626947;12251.25
87.536;3.01016;5.63715;12253.79
87.636;3.01512;5.647251;12255.45
87.736;3.02008;5.657535;12256.86
87.836;3.02508;5.667941;12258.46
87.936;3.03008;5.678114;12260.14
88.036;3.03508;5.689086;12261.07
88.136;3.03992;5.699645;12260.79
88.236;3.04472;5.709931;12260.32
88.336;3.04956;5.719583;12261.06
88.436;3.05436;5.7294;12262.3
88.536;3.05916;5.739504;12264.3
88.636;3.06392;5.749162;12265.12
88.736;3.06864;5.75906;12265.95
88.836;3.0734;5.768757;12267.14
88.936;3.07816;5.779045;12268.46
89.036;3.08292;5.789562;12269.98
89.136;3.08764;5.799108;12271.18
89.236;3.0924;5.808976;12272.66
89.336;3.09724;5.818909;12275.81
89.436;3.10204;5.828759;12278.7
89.536;3.10684;5.83914;12281.52
89.636;3.11164;5.849181;12282.82
89.736;3.1164;5.859131;12284.48
89.836;3.1212;5.868939;12285.81
89.936;3.12608;5.879563;12287.66
90.036;3.13092;5.889699;12289.18
90.136;3.13576;5.899999;12290.84
90.236;3.1406;5.910628;12292.65
90.336;3.14544;5.921651;12295.18
90.436;3.15024;5.932176;12296.19
90.536;3.15504;5.942538;12296.98
90.636;3.15984;5.952596;12298.61
90.736;3.16456;5.962768;12298.69
90.836;3.16924;5.97343;12298.85
90.936;3.17388;5.98368;12298.88
91.036;3.17848;5.993227;12298.67
91.136;3.18312;6.003711;12299.83
91.236;3.18768;6.014113;12301.2
91.336;3.19224;6.024387;12302.46
91.436;3.19672;6.034569;12302.82
91.536;3.20116;6.043847;12303.72
91.636;3.20564;6.053459;12304.4
91.736;3.21016;6.062907;12306.24
91.836;3.21464;6.07323;12307.6
91.936;3.21912;6.082782;12308.69
92.036;3.22356;6.092316;12309.88
92.136;3.22808;6.102395;12310.69
92.236;3.2326;6.111992;12313.69
92.336;3.23716;6.122328;12316.69
92.436;3.24168;6.131923;12318.47
92.536;3.2462;6.1421;12320.11
92.636;3.2508;6.151436;12322.5
92.736;3.2554;6.161214;12324.37
92.836;3.26004;6.171507;12326.47
92.936;3.26464;6.181192;12328.47
93.036;3.26924;6.191302;12329.03
93.136;3.27384;6.201306;12330.19
93.236;3.2784;6.211469;12331.65
93.336;3.28292;6.221583;12333
93.436;3.28752;6.231835;12334.36
93.536;3.29208;6.241478;12335.88
93.636;3.2966;6.251241;12337.35
93.736;3.30108;6.261147;12337.9
93.836;3.30544;6.271025;12337.23
93.936;3.3098;6.280217;12336.37
94.036;3.3142;6.289566;12336.78
94.136;3.31864;6.299289;12338.52
94.236;3.32304;6.309132;12339.83
94.336;3.32748;6.319106;12341.97
94.436;3.33188;6.329742;12343.16
94.536;3.3362;6.338637;12344.18
94.636;3.3406;6.348722;12345.82
94.736;3.34492;6.358121;12346.99
94.836;3.34928;6.367505;12348.09
94.936;3.3536;6.376888;12348.75
95.036;3.35796;6.38653;12349.8
95.136;3.36236;6.395809;12351.5
95.236;3.3668;6.405672;12353.36
95.336;3.3712;6.415579;12355.59
95.436;3.3756;6.425533;12357.19
95.536;3.38004;6.435522;12358.39
95.636;3.38444;6.445106;12359.8
95.736;3.38896;6.454874;12361.72
95.836;3.39344;6.464617;12363.38
95.936;3.39788;6.474713;12364.41
96.036;3.40232;6.484284;12364.8
96.136;3.40676;6.494118;12366.15
96.236;3.41128;6.503706;12366.62
96.336;3.41572;6.513997;12368.07
96.436;3.4202;6.523974;12369.85
96.536;3.42464;6.533884;12371.38
96.636;3.42916;6.543492;12372.76
96.736;3.43356;6.55357;12373.42
96.836;3.43792;6.563381;12373.17
96.936;3.44228;6.572648;12372.85
97.036;3.44668;6.582405;12374.05
97.136;3.45112;6.591951;12375.01
97.236;3.4556;6.601247;12376.23
97.336;3.46008;6.611249;12378.27
97.436;3.4646;6.621903;12380.8
97.536;3.46908;6.632265;12382.65
97.636;3.4736;6.642342;12384.87
97.736;3.47816;6.652335;12386.37
97.836;3.48264;6.662324;12387.3
97.936;3.48716;6.672556;12387.94
98.036;3.49168;6.682318;12388.62
98.136;3.49628;6.691977;12390.38
98.236;3.50092;6.7022;12391.21
98.336;3.50552;6.712019;12392.98
98.436;3.51012;6.723168;12394.77
98.536;3.51476;6.733398;12396.19
98.636;3.5194;6.744032;12397.57
98.736;3.52408;6.754443;12398.96
98.836;3.5288;6.764983;12400.27
98.936;3.5334;6.775851;12400.35
99.036;3.53812;6.786015;12401.15
99.136;3.54284;6.796567;12402.12
99.236;3.54756;6.806986;12402.42
99.336;3.55224;6.817222;12403.26
99.436;3.55688;6.828008;12404.25
99.536;3.56152;6.838619;12404.31
99.636;3.56608;6.848835;12403.82
99.736;3.57056;6.858861;12403.52
99.836;3.57508;6.869279;12402.81
99.936;3.5796;6.878851;12403.04
100.036;3.5842;6.889515;12403.27
100.136;3.58884;6.900097;12404.79
100.236;3.59352;6.91016;12406.95
100.336;3.5982;6.920896;12409.24
100.436;3.60292;6.931448;12411.43
100.536;3.6076;6.942281;12413.3
100.636;3.61236;6.953132;12415.38
100.736;3.61712;6.963114;12416.84
100.836;3.62188;6.973846;12417.9
100.936;3.6266;6.984075;12418.82
101.036;3.63136;6.99501;12419.31
101.136;3.63596;7.00511;12418.75
101.236;3.64056;7.015612;12418.22
101.336;3.64512;7.026371;12417.75
101.436;3.64964;7.0374;12417.96
101.536;3.65408;7.048105;12417.79
101.636;3.65856;7.058438;12417.26
101.736;3.66292;7.068713;12417.21
101.836;3.66724;7.078405;12416.38
101.936;3.6716;7.088232;12416.41
102.036;3.676;7.097931;12417.34
102.136;3.68032;7.107152;12417.11
102.236;3.68464;7.116982;12417.83
102.336;3.689;7.127005;12419.07
102.436;3.69336;7.136828;12421.1
102.536;3.69764;7.146538;12422.45
102.636;3.70184;7.156552;12422.82
102.736;3.70604;7.165956;12422.73
102.836;3.71024;7.17575;12423.27
102.936;3.71444;7.18521;12424.1
103.036;3.71868;7.194883;12425.11
103.136;3.72288;7.203792;12426.58
103.236;3.72712;7.213869;12427.32
103.336;3.73132;7.22304;12428.22
103.436;3.73552;7.232599;12429.56
103.536;3.73976;7.242204;12431.68
103.636;3.744;7.251883;12433.73
103.736;3.7482;7.261514;12434.7
103.836;3.7524;7.270803;12435.55
103.936;3.7566;7.280222;12436.88
104.036;3.76084;7.289207;12438.07
104.136;3.76508;7.298599;12439.39
104.236;3.76932;7.308155;12440.39
104.336;3.77356;7.317562;12441.17
104.436;3.7778;7.327604;12441.99
104.536;3.78208;7.337067;12444.07
104.636;3.7864;7.346692;12446.46
104.736;3.79076;7.356438;12448.61
104.836;3.79512;7.366294;12450.79
104.936;3.79948;7.376366;12452.69
105.036;3.80384;7.386015;12452.83
105.136;3.80824;7.396034;12454.02
105.236;3.81264;7.405235;12454.9
105.336;3.81704;7.415199;12455.13
105.436;3.82152;7.424857;12456.32
105.536;3.82596;7.434844;12458.03
105.636;3.83032;7.444976;12458.61
105.736;3.83456;7.45521;12458.01
105.836;3.83876;7.465293;12456.53
105.936;3.84296;7.475119;12455.65
106.036;3.84712;7.484991;12455.22
106.136;3.85132;7.494339;12455.18
106.236;3.85556;7.503441;12455.74
106.336;3.8598;7.512686;12456.35
106.436;3.86404;7.522046;12456.96
106.536;3.86832;7.531647;12457.98
106.636;3.87272;7.541447;12460.84
106.736;3.87712;7.551144;12463.69
106.836;3.88152;7.561479;12465.85
106.936;3.88596;7.571348;12467.17
107.036;3.89036;7.581446;12468.3
107.136;3.8948;7.591254;12469.02
107.236;3.89928;7.601441;12470.41
107.336;3.90376;7.61145;12471
107.436;3.9082;7.621436;12470.67
107.536;3.91252;7.631085;12470.06
107.636;3.91684;7.641387;12469.57
107.736;3.92124;7.651327;12470.34
107.836;3.92552;7.661553;12470.44
107.936;3.92984;7.671709;12470.69
108.036;3.93416;7.681163;12471.19
108.136;3.93852;7.690902;12472.34
108.236;3.94292;7.700934;12473.46
108.336;3.94732;7.710671;12474.87
108.436;3.9518;7.720438;12476.08
108.536;3.95636;7.730468;12477.83
108.636;3.96096;7.74067;12480.74
108.736;3.96552;7.751251;12482.76
108.836;3.97008;7.762162;12483.65
108.936;3.97456;7.772566;12483.79
109.036;3.97912;7.783007;12484.12
109.136;3.98364;7.793688;12484.54
109.236;3.98824;7.803874;12484.85
109.336;3.99284;7.813888;12485.02
109.436;3.9974;7.824516;12485.09
109.536;4.00196;7.83492;12484.73
109.636;4.00652;7.844873;12485.97
109.736;4.011;7.855727;12485.44
109.836;4.01548;7.866286;12485.33
109.936;4.01996;7.876895;12485.48
110.036;4.02448;7.887609;12485.94
110.136;4.02896;7.89834;12486.19
110.236;4.03348;7.908344;12487.32
110.336;4.038;7.918553;12486.97
110.436;4.04244;7.928957;12486.44
110.536;4.04692;7.939024;12486.95
110.636;4.05144;7.949568;12487.44
110.736;4.05592;7.959766;12488.74
110.836;4.06036;7.969878;12489.46
110.936;4.06476;7.980796;12488.7
111.036;4.06916;7.990941;12488.19
111.136;4.07352;8.000803;12488.43
111.236;4.07788;8.01086;12488.33
111.336;4.08216;8.020715;12487.73
111.436;4.08652;8.030417;12487.57
111.536;4.09088;8.040851;12487.66
111.636;4.09516;8.050398;12488.88
111.736;4.09944;8.060433;12489.22
111.836;4.10372;8.070095;12490.04
111.936;4.10808;8.080287;12491.41
112.036;4.1124;8.09055;12493.33
112.136;4.1168;8.100501;12495.04
112.236;4.12124;8.110335;12496.68
112.336;4.12572;8.120237;12498.85
112.436;4.1302;8.130683;12499.72
112.536;4.13468;8.140814;12501.16
112.636;4.13916;8.15134;12502.07
112.736;4.1436;8.161826;12502.64
112.836;4.14796;8.172522;12502.83
112.936;4.15232;8.183172;12502.52
113.036;4.15668;8.193479;12502.64
113.136;4.16108;8.203441;12502.89
113.236;4.16544;8.213028;12503.29
113.336;4.1698;8.223189;12503.31
113.436;4.17412;8.233447;12502.36
113.536;4.17848;8.243301;12502.51
113.636;4.18288;8.253179;12503.49
113.736;4.18732;8.263346;12505.37
113.836;4.19176;8.273681;12507.33
113.936;4.19608;8.284511;12507.3
114.036;4.20044;8.294699;12507.12
114.136;4.2048;8.305041;12507.79
114.236;4.20912;8.314954;12508.01
114.336;4.21344;8.32494;12507.78
114.436;4.2178;8.334947;12507.73
114.536;4.22212;8.344849;12507.65
114.636;4.22644;8.354814;12507.48
114.736;4.23068;8.364464;12507.14
114.836;4.2348;8.374507;12506.57
114.936;4.23888;8.38457;12505.16
115.036;4.24296;8.394134;12504.7
115.136;4.247;8.403465;12504.03
115.236;4.25104;8.412674;12503.66
115.336;4.25512;8.42197;12504.23
115.436;4.25916;8.43135;12504.53
115.536;4.26316;8.44074;12504.36
115.636;4.2672;8.449709;12505.13
115.736;4.27132;8.459207;12506.55
115.836;4.2754;8.468141;12507.9
115.936;4.27948;8.477753;12510
116.036;4.28352;8.487183;12511.07
116.136;4.2876;8.496469;12512.16
116.236;4.29168;8.505671;12513.79
116.336;4.29572;8.515242;12514.72
116.436;4.29984;8.523849;12515.81
116.536;4.30392;8.533633;12516.87
116.636;4.308;8.542711;12517.05
116.736;4.31216;8.55158;12518.17
116.836;4.31628;8.561292;12519.56
116.936;4.32052;8.570486;12521.03
117.036;4.32476;8.580434;12523.52
117.136;4.32904;8.590161;12525.33
117.236;4.33328;8.600717;12526.52
117.336;4.33756;8.610155;12527.77
117.436;4.34184;8.619685;12528.84
117.536;4.34616;8.629398;12529.44
117.636;4.35052;8.638527;12530.11
117.736;4.35488;8.648315;12530.72
117.836;4.35928;8.658051;12531.67
117.936;4.36368;8.667869;12531.82
118.036;4.368;8.678097;12531.63
118.136;4.37228;8.687738;12531.12
118.236;4.37656;8.697627;12530.33
118.336;4.38084;8.707087;12530.19
118.436;4.38516;8.717285;12530.26
118.536;4.38944;8.726629;12529.95
118.636;4.39376;8.735801;12529.84
118.736;4.39812;8.746094;12529.93
118.836;4.40252;8.755478;12530.74
118.936;4.40692;8.764916;12531.49
119.036;4.4114;8.774534;12532.73
119.136;4.41584;8.784606;12533.86
119.236;4.42028;8.794007;12534.51
119.336;4.42476;8.803723;12535.54
119.436;4.42924;8.81391;12536.43
119.536;4.43372;8.823884;12536.62
119.636;4.43824;8.833088;12537.33
119.736;4.4428;8.842738;12537.82
119.836;4.44732;8.852915;12537.87
119.936;4.45196;8.863236;12538.46
120.036;4.45664;8.872312;12539.81
120.136;4.46128;8.882838;12540.44
120.236;4.46596;8.893472;12541.51
120.336;4.47068;8.903696;12542.38
120.436;4.4754;8.913679;12542.61
120.536;4.48016;8.923953;12542.79
120.636;4.485;8.933742;12543.69
120.736;4.48984;8.943809;12543.46
120.836;4.49468;8.953868;12543.33
120.936;4.49944;8.963923;12541.92
121.036;4.50416;8.973785;12540.67
121.136;4.50892;8.983845;12540.38
121.236;4.51368;8.993787;12540.49
121.336;4.51848;9.00417;12540.5
121.436;4.52324;9.014529;12540.32
121.536;4.52796;9.024737;12539.61
121.636;4.5328;9.03437;12539.72
121.736;4.53768;9.04429;12540.03
121.836;4.5426;9.054561;12540.81
121.936;4.54756;9.06416;12541.59
122.036;4.55252;9.07445;12542.44
122.136;4.55752;9.084278;12543.9
122.236;4.56256;9.094669;12544.75
122.336;4.56768;9.105121;12545.6
122.436;4.57276;9.115537;12545.28
122.536;4.5778;9.125445;12544.8
122.636;4.58288;9.136057;12543.87
122.736;4.588;9.145884;12543.77
122.836;4.59312;9.155808;12543.31
122.936;4.59824;9.166479;12543.01
123.036;4.60336;9.176229;12543.49
123.136;4.60856;9.186386;12543.87
123.236;4.61372;9.196719;12543.95
123.336;4.61896;9.206957;12543.84
123.436;4.6242;9.216891;12544.34
123.536;4.62944;9.227399;12543.5
123.636;4.63456;9.237048;12541.88
123.736;4.63972;9.246092;12540.09
123.836;4.64484;9.25636;12540.43
123.936;4.65008;9.265807;12540.68
124.036;4.65528;9.275328;12540.68
124.136;4.66048;9.285642;12540.51
124.236;4.66568;9.295099;12540.17
124.336;4.67096;9.304979;12540.84
124.436;4.67624;9.315055;12540.92
124.536;4.68156;9.324523;12541.21
124.636;4.68696;9.334067;12541.51
124.736;4.69232;9.343528;12542.95
124.836;4.69772;9.353059;12543.36
124.936;4.70308;9.362257;12543.26
125.036;4.70844;9.371891;12542.6
125.136;4.71384;9.381211;12541.45
125.236;4.71932;9.390265;12541.54
125.336;4.72484;9.399554;12542.18
125.436;4.7304;9.409119;12541.75
125.536;4.736;9.418344;12543.07
125.636;4.74164;9.428243;12544.03
125.736;4.74732;9.437407;12544.39
125.836;4.75308;9.447129;12544.98
125.936;4.75892;9.456315;12545.82
126.036;4.76468;9.46542;12544.48
126.136;4.77052;9.474202;12543.76
126.236;4.7764;9.48357;12543.43
126.336;4.78232;9.492147;12543.67
126.436;4.78828;9.501573;12544.39
126.536;4.79428;9.510903;12544.21
126.636;4.80036;9.519685;12543.72
126.736;4.80648;9.529145;12543.33
126.836;4.81264;9.537907;12543.18
126.936;4.81892;9.546615;12542.03
127.036;4.8252;9.554983;12542.36
127.136;4.83156;9.564339;12542.59
127.236;4.83788;9.572686;12541.72
127.336;4.84424;9.581438;12541.05
127.436;4.85064;9.589556;12539.31
127.536;4.85712;9.598138;12538.63
127.636;4.86364;9.606878;12537.85
127.736;4.87028;9.615273;12537.65
127.836;4.87696;9.623782;12537.82
127.936;4.88372;9.632221;12538.52
128.036;4.89064;9.640342;12538.55
128.136;4.8976;9.648328;12537.99
128.236;4.904681;9.656576;12536.87
128.336;4.911841;9.664146;12535.65
128.436;4.91912;9.672395;12536.13
128.536;4.92648;9.679822;12536.39
128.636;4.93388;9.687818;12535.74
128.736;4.94136;9.695542;12533.58
128.836;4.94892;9.703032;12531.2
128.936;4.95652;9.710546;12529.15
129.036;4.96412;9.718177;12527.22
129.136;4.971841;9.725331;12526.52
129.236;4.9798;9.732533;12526.46
129.336;4.98784;9.739879;12526
129.436;4.99604;9.747121;12525
129.536;5.00448;9.753917;12524.74
129.636;5.01308;9.760804;12525.05
129.736;5.02184;9.767579;12524.9
129.836;5.03068;9.773835;12522.71
129.936;5.03968;9.780191;12518.72
130.036;5.048841;9.786588;12516.49
130.136;5.0582;9.792435;12515.48
130.236;5.06772;9.798533;12513.49
130.336;5.0774;9.804824;12511.44
130.436;5.08732;9.81056;12508.72
130.536;5.09744;9.816534;12506.3
130.636;5.107761;9.821999;12505.43
130.736;5.11832;9.827471;12503.13
130.836;5.12908;9.832767;12499.67
130.936;5.14008;9.838246;12496.13
131.036;5.15128;9.843133;12493.59
131.136;5.16276;9.847935;12490.95
131.236;5.17444;9.853045;12486.75
131.336;5.18648;9.857289;12483.65
131.436;5.19884;9.861708;12481.38
131.536;5.21144;9.865983;12477.02
131.636;5.22416;9.869875;12469.77
131.736;5.23712;9.873625;12464.57
131.836;5.2504;9.877806;12462.05
131.936;5.26412;9.881484;12458.7
132.036;5.27824;9.884687;12453.39
132.136;5.29276;9.888197;12448.71
132.236;5.3074;9.89138;12439.3
132.336;5.32236;9.893649;12430.75
132.436;5.33776;9.896681;12426.03
132.536;5.35352;9.899383;12418.97
132.636;5.36964;9.901851;12408.79
132.736;5.386;9.90383;12400.17
132.836;5.40276;9.90647;12390.43
132.936;5.42024;9.908484;12382.57
133.036;5.43812;9.910746;12371.44
133.136;5.45632;9.911767;12355.23
133.236;5.47496;9.913468;12342.98
133.336;5.49408;9.91492;12328.24
133.436;5.51376;9.916306;12313.05
133.536;5.53392;9.917597;12295.32
133.636;5.55468;9.917873;12273.12
133.736;5.5758;9.918777;12253.24
133.836;5.59748;9.919458;12228.91
133.936;5.61972;9.920066;12204.14
134.036;5.64256;9.919704;12171.29
134.136;5.66608;9.920479;12138.06
134.236;5.69028;9.919719;12096.17
134.304;5.70696;9.914871;11807.86
134.306;5.70756;9.878137;11474.22
134.308;5.70808;9.770121;11017.24
134.31;5.70904;9.562061;10479.2
134.312;5.71012;9.256332;9881.096
134.314;5.71172;8.876887;9234.51
134.316;5.71328;8.446454;8557.145
134.318;5.71528;7.978713;7867.264
134.32;5.71712;7.484255;7176.609
134.322;5.71904;6.974305;6493.658
134.324;5.7208;6.459507;5827.209
134.326;5.72264;5.94876;5185.02
134.328;5.724441;5.449116;4572.338
134.33;5.72628;4.965713;3992.809
134.332;5.72808;4.502182;3449.468