File: Tensile tests/raw-CSV/Group5-250Cfor2h.is_tens.raw.csv
Time sec;Extension mm;Strain 1 %;Load N;;;;;;;;;
0;0;-0.0006060383;-37.35496;;;;;;;;;
0.2;0;-0.0002357998;-37.99425;;;;;;;;;
0.4;0;2.727738e-005;-37.88694;;;;;;;;;
0.6;0;-0.0001801855;-38.35377;;;;;;;;;
0.8;0;-0.0001262373;-37.76582;;;;;;;;;
1;0;-8.33139e-005;-37.70103;;;;;;;;;
1.2;0.00008;2.370052e-005;-37.67026;;;;;;;;;
1.4;0.00016;-0.0001200635;-37.64633;;;;;;;;;
1.6;0.00028;5.760794e-005;-37.42279;;;;;;;;;
1.8;0.00048;-9.747473e-005;-37.48408;;;;;;;;;
2;0.0006800001;0.0001806453;-36.84555;;;;;;;;;
2.2;0.00092;3.007044e-005;-36.70984;;;;;;;;;
2.4;0.00116;0.0001994609;-36.28039;;;;;;;;;
2.6;0.00144;0.0003798274;-36.02549;;;;;;;;;
2.8;0.0018;6.868177e-005;-35.19509;;;;;;;;;
3;0.00224;7.71588e-005;-34.22466;;;;;;;;;
3.2;0.0028;0.0004405865;-33.13742;;;;;;;;;
3.4;0.00344;0.0004124609;-31.52925;;;;;;;;;
3.6;0.00416;0.000608409;-29.65928;;;;;;;;;
3.8;0.00504;0.0009392523;-26.90135;;;;;;;;;
4;0.00604;0.001104184;-22.82423;;;;;;;;;
4.2;0.0072;0.001305914;-17.69339;;;;;;;;;
4.4;0.00856;0.002061728;-9.649232;;;;;;;;;
4.6;0.01008;0.002900743;4.613605;;;;;;;;;
4.8;0.01204;0.003853338;27.37441;;;;;;;;;
5;0.01436;0.006043753;57.51572;;;;;;;;;
5.2;0.0172;0.009144819;106.0493;;;;;;;;;
5.4;0.02048;0.01261902;165.9909;;;;;;;;;
5.6;0.02436;0.01663186;236.9561;;;;;;;;;
5.8;0.02884;0.02136965;315.9865;;;;;;;;;
6;0.03412;0.02604707;407.0671;;;;;;;;;
6.2;0.04012;0.03106999;511.4244;;;;;;;;;
6.4;0.04684;0.03664376;625.6888;;;;;;;;;
6.6;0.0544;0.04275392;753.494;;;;;;;;;
6.8;0.0628;0.0493871;893.0774;;;;;;;;;
7;0.0718;0.05667364;1046.133;;;;;;;;;
7.2;0.08128;0.06456394;1206.022;;;;;;;;;
7.4;0.09108;0.07264059;1370.799;;;;;;;;;
7.6;0.10148;0.08110865;1541.36;;;;;;;;;
7.8;0.11224;0.09140071;1717.551;;;;;;;;;
8;0.12344;0.1017479;1901.123;;;;;;;;;
8.2;0.13496;0.1126523;2088.191;;;;;;;;;
8.4;0.14692;0.1236662;2276.237;;;;;;;;;
8.6;0.15924;0.1356277;2468.551;;;;;;;;;
8.8;0.17192;0.1478195;2657.632;;;;;;;;;
9;0.1848;0.160711;2831.044;;;;;;;;;
9.2;0.19796;0.1743417;2980.89;;;;;;;;;
9.4;0.21128;0.1908281;3096.445;;;;;;;;;
9.6;0.22448;0.2115206;3172.735;;;;;;;;;
9.8;0.23764;0.2368008;3223.373;;;;;;;;;
10;0.25048;0.263483;3261.456;;;;;;;;;
10.2;0.26292;0.2897696;3293.297;;;;;;;;;
10.4;0.27476;0.3143399;3321.246;;;;;;;;;
10.6;0.28612;0.3377172;3347.272;;;;;;;;;
10.8;0.29692;0.3590102;3371.657;;;;;;;;;
11;0.30716;0.378649;3394.776;;;;;;;;;
11.2;0.3166;0.3963831;3415.806;;;;;;;;;
11.4;0.32524;0.4125438;3435.617;;;;;;;;;
11.6;0.33316;0.4270912;3454.619;;;;;;;;;
11.8;0.34028;0.4398921;3471.431;;;;;;;;;
12;0.34628;0.4512627;3485.6;;;;;;;;;
12.2;0.35128;0.4601514;3498.956;;;;;;;;;
12.4;0.35544;0.4671711;3510.761;;;;;;;;;
12.6;0.35884;0.4728778;3520.694;;;;;;;;;
12.8;0.36144;0.4772204;3527.774;;;;;;;;;
13;0.36332;0.4803252;3532.436;;;;;;;;;
13.2;0.36452;0.4827182;3534.061;;;;;;;;;
13.4;0.36504;0.4834275;3531.939;;;;;;;;;
13.6;0.36512;0.4840805;3528.016;;;;;;;;;
13.8;0.36512;0.4843034;3523.482;;;;;;;;;
14;0.36512;0.4842499;3520.162;;;;;;;;;
14.2;0.36512;0.484681;3517.628;;;;;;;;;
14.4;0.36504;0.4846415;3515.143;;;;;;;;;
14.6;0.365;0.4848009;3513.383;;;;;;;;;
14.8;0.36488;0.4846384;3511.683;;;;;;;;;
15;0.36464;0.4845946;3510.04;;;;;;;;;
15.2;0.36432;0.485107;3509.15;;;;;;;;;
15.4;0.36396;0.4847763;3508.027;;;;;;;;;
15.6;0.36356;0.4849629;3506.387;;;;;;;;;
15.8;0.3632;0.4845967;3505.24;;;;;;;;;
16;0.36276;0.4848136;3504.246;;;;;;;;;
16.2;0.36224;0.4846251;3502.55;;;;;;;;;
16.4;0.36168;0.4847826;3500.976;;;;;;;;;
16.6;0.36112;0.4845176;3499.237;;;;;;;;;
16.8;0.36052;0.484156;3497.224;;;;;;;;;
17;0.35988;0.4842299;3495.056;;;;;;;;;
17.2;0.35928;0.4842541;3492.494;;;;;;;;;
17.4;0.35868;0.4841536;3490.655;;;;;;;;;
17.6;0.35808;0.4839743;3487.767;;;;;;;;;
17.8;0.35752;0.4839964;3485.551;;;;;;;;;
18;0.35696;0.4837971;3482.723;;;;;;;;;
18.2;0.35644;0.4835016;3480.219;;;;;;;;;
18.4;0.35596;0.4835137;3477.378;;;;;;;;;
18.6;0.35552;0.4836246;3474.222;;;;;;;;;
18.8;0.3552;0.4833234;3471.612;;;;;;;;;
19;0.35492;0.4830158;3469.886;;;;;;;;;
19.2;0.35468;0.4831135;3467.497;;;;;;;;;
19.4;0.35448;0.4831291;3465.601;;;;;;;;;
19.6;0.35432;0.4833212;3463.751;;;;;;;;;
19.8;0.3542;0.4828643;3462.479;;;;;;;;;
20;0.35416;0.4824244;3461.298;;;;;;;;;
20.2;0.35416;0.4828323;3460.714;;;;;;;;;
20.4;0.35416;0.4826792;3459.81;;;;;;;;;
20.6;0.35416;0.4828557;3459.523;;;;;;;;;
20.8;0.35416;0.4828915;3459.028;;;;;;;;;
21;0.35416;0.4828773;3458.68;;;;;;;;;
21.2;0.35416;0.4826352;3458.603;;;;;;;;;
21.4;0.35416;0.4828169;3458.445;;;;;;;;;
21.6;0.35416;0.4830349;3457.818;;;;;;;;;
21.8;0.35416;0.4823832;3458.105;;;;;;;;;
22;0.35416;0.4829819;3457.758;;;;;;;;;
22.2;0.35424;0.4828039;3457.439;;;;;;;;;
22.4;0.35428;0.4828028;3456.752;;;;;;;;;
22.6;0.3544;0.4828829;3456.622;;;;;;;;;
22.8;0.35456;0.483064;3456.731;;;;;;;;;
23;0.35488;0.4828483;3456.499;;;;;;;;;
23.2;0.35528;0.4827492;3456.831;;;;;;;;;
23.4;0.3558;0.4828821;3456.797;;;;;;;;;
23.6;0.35632;0.482953;3456.745;;;;;;;;;
23.8;0.35704;0.4829402;3458.241;;;;;;;;;
24;0.35788;0.4833067;3459.536;;;;;;;;;
24.2;0.35884;0.483493;3461.684;;;;;;;;;
24.4;0.35996;0.4832941;3464.195;;;;;;;;;
24.6;0.36128;0.4843519;3468.693;;;;;;;;;
24.8;0.36288;0.4841482;3475.421;;;;;;;;;
25;0.36472;0.4846012;3486.352;;;;;;;;;
25.2;0.36684;0.4863083;3513.885;;;;;;;;;
25.4;0.3696;0.489495;3561.944;;;;;;;;;
25.6;0.37308;0.4929055;3615.398;;;;;;;;;
25.8;0.37728;0.4961465;3656.954;;;;;;;;;
26;0.3824;0.4974182;3669.608;;;;;;;;;
26.2;0.3884;0.498279;3672.181;;;;;;;;;
26.4;0.39512;0.4984337;3674.589;;;;;;;;;
26.6;0.40268;0.4988112;3676.473;;;;;;;;;
26.8;0.4114;0.4992833;3678.201;;;;;;;;;
27;0.42112;0.4998608;3679.479;;;;;;;;;
27.2;0.43192;0.5004392;3681.237;;;;;;;;;
27.4;0.44368;0.5399151;3683.222;;;;;;;;;
27.6;0.45528;0.6250966;3683.45;;;;;;;;;
27.8;0.46636;0.6799352;3685.049;;;;;;;;;
28;0.47728;0.6857587;3725.962;;;;;;;;;
28.2;0.48788;0.7072006;3769.051;;;;;;;;;
28.4;0.4982;0.7313092;3792.69;;;;;;;;;
28.6;0.50816;0.7518191;3809.37;;;;;;;;;
28.8;0.5177601;0.7658036;3822.665;;;;;;;;;
29;0.52696;0.7744568;3835.408;;;;;;;;;
29.2;0.5358;0.780415;3847.417;;;;;;;;;
29.4;0.54436;0.7867648;3869.582;;;;;;;;;
29.6;0.55264;0.794804;3891.886;;;;;;;;;
29.8;0.5606;0.8043935;3910.469;;;;;;;;;
30;0.56832;0.8156314;3927.377;;;;;;;;;
30.2;0.5756;0.8289214;3941.845;;;;;;;;;
30.4;0.58244;0.846337;3950.356;;;;;;;;;
30.6;0.58864;0.8645579;3952.496;;;;;;;;;
30.8;0.59412;0.8850867;3966.063;;;;;;;;;
31;0.5988;0.9010617;3982.857;;;;;;;;;
31.2;0.6028;0.9109039;3996.877;;;;;;;;;
31.4;0.60596;0.9178994;4005.403;;;;;;;;;
31.6;0.60836;0.9216564;4010.969;;;;;;;;;
31.8;0.61016;0.924544;4014.6;;;;;;;;;
32;0.6112;0.925834;4014.203;;;;;;;;;
32.2;0.6116401;0.9267845;4010.152;;;;;;;;;
32.4;0.61172;0.9268334;4004.648;;;;;;;;;
32.6;0.61172;0.92765;3999.166;;;;;;;;;
32.8;0.61172;0.9274288;3995.164;;;;;;;;;
33;0.61172;0.9275052;3992.211;;;;;;;;;
33.2;0.61172;0.9273894;3989.27;;;;;;;;;
33.4;0.61172;0.9275868;3986.513;;;;;;;;;
33.6;0.6116401;0.9275799;3984.796;;;;;;;;;
33.8;0.6116401;0.9276533;3982.766;;;;;;;;;
34;0.6116401;0.9277691;3981.002;;;;;;;;;
34.2;0.61156;0.9270877;3979.708;;;;;;;;;
34.4;0.61144;0.9275962;3978.738;;;;;;;;;
34.6;0.61132;0.9277933;3977.166;;;;;;;;;
34.8;0.61116;0.9275806;3976.134;;;;;;;;;
35;0.61104;0.9275388;3975.44;;;;;;;;;
35.2;0.61092;0.9271622;3974.088;;;;;;;;;
35.4;0.6108001;0.92757;3973.097;;;;;;;;;
35.6;0.61072;0.9278619;3972.381;;;;;;;;;
35.8;0.6106;0.9276507;3971.635;;;;;;;;;
36;0.61052;0.9278241;3971.045;;;;;;;;;
36.2;0.61044;0.9273872;3970.52;;;;;;;;;
36.4;0.61036;0.9274046;3969.734;;;;;;;;;
36.6;0.61032;0.9276872;3969.095;;;;;;;;;
36.8;0.61028;0.9275297;3968.557;;;;;;;;;
37;0.61028;0.9277659;3968.054;;;;;;;;;
37.2;0.61028;0.9271588;3967.811;;;;;;;;;
37.4;0.61028;0.9275138;3966.916;;;;;;;;;
37.6;0.61028;0.927435;3966.349;;;;;;;;;
37.8;0.61028;0.9273436;3966.114;;;;;;;;;
38;0.61028;0.9273213;3965.496;;;;;;;;;
38.2;0.61028;0.9272527;3965.473;;;;;;;;;
38.4;0.61028;0.9272606;3964.682;;;;;;;;;
38.6;0.61028;0.9272019;3964.635;;;;;;;;;
38.8;0.61028;0.927392;3964.011;;;;;;;;;
39;0.61028;0.9271788;3963.519;;;;;;;;;
39.2;0.61028;0.9274234;3963.286;;;;;;;;;
39.4;0.61028;0.9274136;3963.088;;;;;;;;;
39.6;0.61028;0.9272107;3962.785;;;;;;;;;
39.8;0.61036;0.927127;3962.058;;;;;;;;;
40;0.6104;0.9274717;3962.316;;;;;;;;;
40.2;0.61052;0.9272895;3961.775;;;;;;;;;
40.4;0.61068;0.9271996;3961.559;;;;;;;;;
40.6;0.61088;0.9274101;3961.188;;;;;;;;;
40.8;0.61116;0.9275133;3961.085;;;;;;;;;
41;0.61152;0.9269613;3961.273;;;;;;;;;
41.2;0.61196;0.9272553;3961.501;;;;;;;;;
41.4;0.6126;0.9276335;3964.028;;;;;;;;;
41.6;0.61364;0.9282907;3976.181;;;;;;;;;
41.8;0.6152;0.9300246;4003.472;;;;;;;;;
42;0.61732;0.9320063;4037.805;;;;;;;;;
42.2;0.61988;0.9349613;4077.744;;;;;;;;;
42.4;0.623;0.9381182;4119.348;;;;;;;;;
42.6;0.62676;0.9398468;4147.976;;;;;;;;;
42.8;0.63128;0.9413975;4157.696;;;;;;;;;
43;0.63656;0.9418231;4158.906;;;;;;;;;
43.2;0.64252;0.9428336;4162.558;;;;;;;;;
43.4;0.64936;0.9425334;4165.103;;;;;;;;;
43.6;0.657;0.9420174;4156.075;;;;;;;;;
43.8;0.6655201;0.9393273;4143.686;;;;;;;;;
44;0.675;0.93852;4136.93;;;;;;;;;
44.2;0.6855601;0.938076;4141.336;;;;;;;;;
44.4;0.6969601;0.9989954;4165.17;;;;;;;;;
44.404;0.69716;1.001528;4165.712;;;;;;;;;
44.604;0.708;1.106982;4158.382;;;;;;;;;
44.804;0.7189201;1.11295;4150.808;;;;;;;;;
45.004;0.73044;1.118303;4166.435;;;;;;;;;
45.204;0.74252;1.125715;4186.63;;;;;;;;;
45.404;0.75488;1.103838;4204.983;;;;;;;;;
45.604;0.76788;1.161099;4186.948;;;;;;;;;
45.804;0.78016;1.216075;4275.595;;;;;;;;;
46.004;0.79224;1.240123;4302.82;;;;;;;;;
46.204;0.80456;1.247956;4328.402;;;;;;;;;
46.404;0.81732;1.251294;4339.791;;;;;;;;;
46.604;0.83084;1.253958;4358.382;;;;;;;;;
46.804;0.84524;1.256702;4371.821;;;;;;;;;
47.004;0.86044;1.278173;4388.405;;;;;;;;;
47.204;0.87556;1.349607;4407.622;;;;;;;;;
47.404;0.8906;1.35501;4435.601;;;;;;;;;
47.604;0.90632;1.336844;4467.312;;;;;;;;;
47.804;0.92248;1.417866;4479.553;;;;;;;;;
48.004;0.9378;1.475443;4493.727;;;;;;;;;
48.204;0.95308;1.483878;4531.234;;;;;;;;;
48.404;0.96864;1.487691;4551.606;;;;;;;;;
48.604;0.98448;1.492469;4571.793;;;;;;;;;
48.804;1.00084;1.497979;4592.216;;;;;;;;;
49.004;1.01772;1.524737;4620.72;;;;;;;;;
49.204;1.03376;1.619467;4652.505;;;;;;;;;
49.404;1.04932;1.63191;4671.944;;;;;;;;;
49.604;1.0652;1.60606;4692.013;;;;;;;;;
49.804;1.08168;1.63642;4711.724;;;;;;;;;
50.004;1.09724;1.733007;4742.007;;;;;;;;;
50.204;1.1124;1.740518;4748.096;;;;;;;;;
50.404;1.12748;1.743038;4748.057;;;;;;;;;
50.604;1.1424;1.748085;4790.185;;;;;;;;;
50.804;1.15728;1.751448;4814.662;;;;;;;;;
51.004;1.17236;1.765145;4838.608;;;;;;;;;
51.204;1.1872;1.796898;4850.621;;;;;;;;;
51.404;1.2018;1.808656;4870.287;;;;;;;;;
51.604;1.21572;1.902235;4893.66;;;;;;;;;
51.804;1.22904;1.92591;4912.052;;;;;;;;;
52.004;1.24248;1.930389;4908.651;;;;;;;;;
52.204;1.256;1.928224;4935.454;;;;;;;;;
52.404;1.26976;1.904534;4942.918;;;;;;;;;
52.604;1.28392;1.903984;4961.943;;;;;;;;;
52.804;1.297;2.0188;5002.605;;;;;;;;;
53.004;1.30916;2.036266;5015.674;;;;;;;;;
53.204;1.321;2.041216;5003.497;;;;;;;;;
53.404;1.33276;2.04331;5004.19;;;;;;;;;
53.604;1.3446;2.04966;5063.469;;;;;;;;;
53.804;1.35648;2.051842;5053.739;;;;;;;;;
54.004;1.36884;2.054553;5069.513;;;;;;;;;
54.204;1.3814;2.077728;5065.612;;;;;;;;;
54.404;1.39352;2.151995;5118.176;;;;;;;;;
54.604;1.40456;2.243905;5116.978;;;;;;;;;
54.804;1.41444;2.256454;5111.569;;;;;;;;;
55.004;1.42392;2.253077;5088.102;;;;;;;;;
55.204;1.43324;2.236693;5148.548;;;;;;;;;
55.404;1.44272;2.221761;5177.303;;;;;;;;;
55.604;1.45264;2.214968;5150.719;;;;;;;;;
55.804;1.46288;2.214453;5163.018;;;;;;;;;
56.004;1.47368;2.215592;5181.495;;;;;;;;;
56.204;1.48496;2.216779;5196.985;;;;;;;;;
56.404;1.49692;2.217967;5219.937;;;;;;;;;
56.604;1.50964;2.19756;5208.559;;;;;;;;;
56.804;1.52312;2.301568;5209.592;;;;;;;;;
57.004;1.53552;2.389159;5282.665;;;;;;;;;
57.204;1.54724;2.415157;5272.713;;;;;;;;;
57.404;1.55884;2.421015;5287.924;;;;;;;;;
57.604;1.57052;2.424103;5268.23;;;;;;;;;
57.804;1.58244;2.426644;5269.326;;;;;;;;;
58.004;1.59468;2.427516;5268.279;;;;;;;;;
58.204;1.6074;2.434575;5336.714;;;;;;;;;
58.404;1.62052;2.435631;5313.577;;;;;;;;;
58.604;1.6344;2.437409;5329.207;;;;;;;;;
58.804;1.64908;2.462012;5346.818;;;;;;;;;
59.004;1.66272;2.62534;5366.213;;;;;;;;;
59.204;1.67536;2.652562;5356.215;;;;;;;;;
59.404;1.68768;2.634546;5379.049;;;;;;;;;
59.604;1.70064;2.594696;5413.914;;;;;;;;;
59.804;1.71404;2.591082;5418.967;;;;;;;;;
60.004;1.728;2.590823;5427.529;;;;;;;;;
60.204;1.74268;2.592051;5448.13;;;;;;;;;
60.404;1.75812;2.59341;5464.539;;;;;;;;;
60.604;1.77464;2.596632;5497.56;;;;;;;;;
60.804;1.79216;2.587954;5469.756;;;;;;;;;
61.004;1.80972;2.768445;5468.544;;;;;;;;;
61.204;1.82512;2.870249;5541.907;;;;;;;;;
61.404;1.83944;2.897891;5550.399;;;;;;;;;
61.604;1.85336;2.906577;5538.589;;;;;;;;;
61.804;1.86716;2.909061;5517.567;;;;;;;;;
62.004;1.881;2.912808;5531.93;;;;;;;;;
62.204;1.89488;2.91617;5559.123;;;;;;;;;
62.404;1.90896;2.920223;5586.477;;;;;;;;;
62.604;1.92324;2.924328;5600.901;;;;;;;;;
62.804;1.9378;2.922363;5577.803;;;;;;;;;
63.004;1.95256;2.92315;5592.265;;;;;;;;;
63.204;1.96708;3.04461;5585.409;;;;;;;;;
63.404;1.97996;3.101941;5648.835;;;;;;;;;
63.604;1.99248;3.094511;5643.146;;;;;;;;;
63.804;2.00572;3.045376;5658.305;;;;;;;;;
64.004;2.01968;3.034473;5660.407;;;;;;;;;
64.204;2.03436;3.035723;5699.507;;;;;;;;;
64.404;2.0498;3.037616;5719.116;;;;;;;;;
64.604;2.06568;3.040324;5738.273;;;;;;;;;
64.804;2.08156;3.097933;5727.538;;;;;;;;;
65.004;2.09588;3.271745;5716.008;;;;;;;;;
65.204;2.10784;3.35747;5764.917;;;;;;;;;
65.404;2.11872;3.37604;5760.51;;;;;;;;;
65.604;2.12884;3.379669;5758.358;;;;;;;;;
65.804;2.13848;3.385143;5798.99;;;;;;;;;
66.004;2.14752;3.391375;5823.836;;;;;;;;;
66.204;2.15608;3.396903;5830.305;;;;;;;;;
66.404;2.16444;3.402026;5833.989;;;;;;;;;
66.604;2.17248;3.401981;5745.587;;;;;;;;;
66.804;2.18052;3.404659;5782.538;;;;;;;;;
67.004;2.18852;3.404877;5783.573;;;;;;;;;
67.204;2.19656;3.40517;5798.448;;;;;;;;;
67.404;2.20464;3.404436;5804.073;;;;;;;;;
67.604;2.2128;3.40387;5809.776;;;;;;;;;
67.804;2.22144;3.403535;5813.329;;;;;;;;;
68.004;2.23064;3.406408;5823.598;;;;;;;;;
68.204;2.24032;3.408924;5842.554;;;;;;;;;
68.404;2.25084;3.402598;5857.343;;;;;;;;;
68.604;2.26212;3.392893;5810.218;;;;;;;;;
68.804;2.2744;3.393129;5832.276;;;;;;;;;
69.004;2.28784;3.395278;5842.623;;;;;;;;;
69.204;2.30156;3.516798;5858.328;;;;;;;;;
69.404;2.31472;3.583949;5883.786;;;;;;;;;
69.604;2.32824;3.586349;5879.049;;;;;;;;;
69.804;2.34212;3.587903;5908.31;;;;;;;;;
70.004;2.35632;3.587831;5933.503;;;;;;;;;
70.204;2.37132;3.584747;5953.701;;;;;;;;;
70.404;2.38736;3.584491;5954.118;;;;;;;;;
70.604;2.40356;3.708918;5953.51;;;;;;;;;
70.804;2.41748;3.923205;5924.246;;;;;;;;;
71.004;2.429;3.992556;5998.375;;;;;;;;;
71.204;2.43868;4.031526;6004.365;;;;;;;;;
71.404;2.44716;4.040504;5999.762;;;;;;;;;
71.604;2.45472;4.043106;6006.245;;;;;;;;;
71.804;2.4614;4.043509;6000.526;;;;;;;;;
72.004;2.46736;4.043642;5968.869;;;;;;;;;
72.204;2.4724;4.042707;5960.443;;;;;;;;;
72.404;2.4768;4.043929;5977.582;;;;;;;;;
72.604;2.48064;4.044505;5977.645;;;;;;;;;
72.804;2.48408;4.044564;5980.947;;;;;;;;;
73.004;2.48716;4.045686;5990.11;;;;;;;;;
73.204;2.49004;4.046073;5997.035;;;;;;;;;
73.404;2.4928;4.046977;6001.544;;;;;;;;;
73.604;2.49556;4.047374;6003.067;;;;;;;;;
73.804;2.49836;4.047886;6002.988;;;;;;;;;
74.004;2.50132;4.048618;6004.658;;;;;;;;;
74.204;2.5046;4.049196;6008.048;;;;;;;;;
74.404;2.50832;4.049969;6010.79;;;;;;;;;
74.604;2.5126;4.051452;6015.004;;;;;;;;;
74.804;2.51756;4.053023;6029.448;;;;;;;;;
75.004;2.52332;4.053631;6049.571;;;;;;;;;
75.204;2.5302;4.051815;6048.577;;;;;;;;;
75.404;2.53836;4.051178;6037.604;;;;;;;;;
75.604;2.54776;4.051631;6056.775;;;;;;;;;
75.804;2.55848;4.052669;6076.826;;;;;;;;;
76.004;2.57056;4.05319;6079.217;;;;;;;;;
76.204;2.58408;4.055658;6102.28;;;;;;;;;
76.404;2.59904;4.05992;6120.787;;;;;;;;;
76.604;2.61536;4.0611;6116.283;;;;;;;;;
76.804;2.63296;4.096895;6124.889;;;;;;;;;
77.004;2.65184;4.110287;6117.551;;;;;;;;;
77.204;2.67252;4.104212;6063.721;;;;;;;;;
77.404;2.69516;4.102374;6072.231;;;;;;;;;
77.604;2.71908;4.251243;6091.705;;;;;;;;;
77.804;2.74224;4.336041;6099.117;;;;;;;;;
78.004;2.76576;4.335645;6135.919;;;;;;;;;
78.204;2.79048;4.315947;6164.838;;;;;;;;;
78.404;2.81668;4.293963;6178.204;;;;;;;;;
78.604;2.84464;4.301654;6167.098;;;;;;;;;
78.804;2.8718;4.621466;6131.557;;;;;;;;;
79.004;2.89424;4.842467;6212.326;;;;;;;;;
79.204;2.9142;4.873611;6244.937;;;;;;;;;
79.348;2.92776;4.868942;6151.648;;;;;;;;;
79.548;2.94564;4.869112;6162.478;;;;;;;;;
79.748;2.96244;4.870534;6207.297;;;;;;;;;
79.948;2.97844;4.871361;6204.735;;;;;;;;;
80.148;2.9936;4.873921;6247.226;;;;;;;;;
80.348;3.0078;4.875752;6260.194;;;;;;;;;
80.548;3.02112;4.875458;6278.634;;;;;;;;;
80.748;3.0338;4.871372;6292.014;;;;;;;;;
80.948;3.04624;4.856017;6292.991;;;;;;;;;
81.148;3.05876;4.827242;6297.923;;;;;;;;;
81.348;3.07164;4.809822;6323.652;;;;;;;;;
81.548;3.08492;4.800692;6258.791;;;;;;;;;
81.748;3.09872;4.799546;6267.513;;;;;;;;;
81.948;3.11312;4.799595;6280.03;;;;;;;;;
82.148;3.12796;4.841222;6275.558;;;;;;;;;
82.348;3.14164;4.955032;6319.287;;;;;;;;;
82.548;3.15372;5.049367;6352.147;;;;;;;;;
82.748;3.16448;5.079569;6303.127;;;;;;;;;
82.948;3.17468;5.086076;6336.228;;;;;;;;;
83.148;3.1846;5.087047;6342.579;;;;;;;;;
83.348;3.19424;5.087978;6354.706;;;;;;;;;
83.548;3.20368;5.088017;6363.598;;;;;;;;;
83.748;3.213;5.086958;6372.128;;;;;;;;;
83.948;3.22236;5.086172;6386.399;;;;;;;;;
84.148;3.23204;5.082614;6398.387;;;;;;;;;
84.348;3.2422;5.065677;6387.031;;;;;;;;;
84.548;3.25308;5.065626;6363.484;;;;;;;;;
84.748;3.26364;5.169733;6350.481;;;;;;;;;
84.948;3.27252;5.285215;6353.032;;;;;;;;;
85.148;3.27928;5.397188;6339.514;;;;;;;;;
85.348;3.2842;5.442505;6366.248;;;;;;;;;
85.548;3.28772;5.46822;6382.119;;;;;;;;;
85.748;3.29008;5.483688;6388.98;;;;;;;;;
85.948;3.29128;5.492256;6386.465;;;;;;;;;
86.148;3.29168;5.496256;6377.224;;;;;;;;;
86.348;3.29172;5.498526;6366.35;;;;;;;;;
86.548;3.29172;5.499982;6356.75;;;;;;;;;
86.748;3.29172;5.500437;6349.143;;;;;;;;;
86.948;3.29164;5.501505;6342.143;;;;;;;;;
87.148;3.29164;5.502129;6336.111;;;;;;;;;
87.348;3.2916;5.502253;6330.676;;;;;;;;;
87.548;3.2916;5.502379;6326.077;;;;;;;;;
87.748;3.2916;5.502401;6321.982;;;;;;;;;
87.948;3.29156;5.502968;6317.994;;;;;;;;;
88.148;3.29156;5.502927;6314.266;;;;;;;;;
88.348;3.29156;5.503305;6311.134;;;;;;;;;
88.548;3.29156;5.503289;6308.372;;;;;;;;;
88.748;3.29156;5.503555;6305.395;;;;;;;;;
88.948;3.29156;5.503562;6303.026;;;;;;;;;
89.148;3.29164;5.503316;6300.303;;;;;;;;;
89.348;3.29164;5.503519;6297.954;;;;;;;;;
89.548;3.2918;5.503745;6295.899;;;;;;;;;
89.748;3.29232;5.503695;6295.384;;;;;;;;;
89.948;3.29332;5.504328;6302.495;;;;;;;;;
90.148;3.29512;5.506396;6327.757;;;;;;;;;
90.348;3.29792;5.508867;6367.249;;;;;;;;;
90.548;3.30188;5.512416;6419.849;;;;;;;;;
90.748;3.30724;5.517272;6483.403;;;;;;;;;
90.948;3.31416;5.513675;6477.338;;;;;;;;;
91.148;3.323;5.510192;6453.063;;;;;;;;;
91.348;3.33372;5.510978;6476.115;;;;;;;;;
91.548;3.34648;5.517996;6455.822;;;;;;;;;
91.748;3.36112;5.519789;6437.795;;;;;;;;;
91.948;3.37768;5.521962;6437.432;;;;;;;;;
92.148;3.39612;5.521646;6416.117;;;;;;;;;
92.348;3.41672;5.520516;6394.536;;;;;;;;;
92.548;3.4398;5.521988;6400.342;;;;;;;;;
92.748;3.46556;5.524756;6417.091;;;;;;;;;
92.948;3.49404;5.517064;6450.74;;;;;;;;;
93.148;3.52596;5.457794;6433.336;;;;;;;;;
93.348;3.5612;5.478781;6494.714;;;;;;;;;
93.548;3.59856;5.594282;6496.94;;;;;;;;;
93.748;3.6348;5.977694;6474.175;;;;;;;;;
93.948;3.66508;6.451059;6460.757;;;;;;;;;
94.148;3.68788;6.779864;6464.034;;;;;;;;;
94.348;3.70496;6.839097;6454.118;;;;;;;;;
94.548;3.7182;6.840421;6447.989;;;;;;;;;
94.748;3.72776;6.839938;6441.699;;;;;;;;;
94.948;3.73388;6.839202;6435.543;;;;;;;;;
95.148;3.73668;6.837886;6424.094;;;;;;;;;
95.348;3.737;6.837499;6408.373;;;;;;;;;
95.548;3.73672;6.837366;6395.802;;;;;;;;;
95.748;3.7354;6.836647;6387.043;;;;;;;;;
95.948;3.73292;6.836535;6376.543;;;;;;;;;
96.148;3.72928;6.835447;6357.77;;;;;;;;;
96.348;3.72424;6.832929;6310.272;;;;;;;;;
96.548;3.71716;6.824061;6197.077;;;;;;;;;
96.748;3.708;6.809149;6049.597;;;;;;;;;
96.948;3.69692;6.789865;5871.59;;;;;;;;;
97.148;3.684;6.767824;5667.466;;;;;;;;;
97.348;3.66964;6.74426;5440.491;;;;;;;;;
97.548;3.65408;6.717861;5196.433;;;;;;;;;
97.748;3.63772;6.691565;4947.091;;;;;;;;;
97.946;3.6212;6.665307;4694.639;;;;;;;;;
98.142;3.60432;6.639459;4443.914;;;;;;;;;
98.338;3.58724;6.613536;4193.315;;;;;;;;;
98.536;3.56992;6.587412;3941.073;;;;;;;;;
98.736;3.55264;6.562674;3697.044;;;;;;;;;
98.936;3.53616;6.538239;3463.316;;;;;;;;;
99.136;3.5206;6.515367;3243.712;;;;;;;;;
99.336;3.5062;6.494354;3045.777;;;;;;;;;
99.536;3.493;6.476051;2861.926;;;;;;;;;
99.736;3.48124;6.459265;2699.263;;;;;;;;;
99.936;3.4708;6.444983;2555.889;;;;;;;;;
100.136;3.462;6.432907;2435.828;;;;;;;;;
100.336;3.45504;6.422571;2340.382;;;;;;;;;
100.536;3.44976;6.414896;2266.884;;;;;;;;;
100.736;3.44644;6.409442;2221.745;;;;;;;;;
100.936;3.44508;6.406795;2203.435;;;;;;;;;
101.136;3.44496;6.406352;2204.409;;;;;;;;;
101.336;3.44508;6.406169;2208.111;;;;;;;;;
101.536;3.44568;6.40616;2211.904;;;;;;;;;
101.736;3.44736;6.4062;2217.362;;;;;;;;;
101.936;3.45024;6.406314;2228.641;;;;;;;;;
102.136;3.45448;6.408295;2262.773;;;;;;;;;
102.336;3.46088;6.414584;2361.073;;;;;;;;;
102.536;3.47;6.424627;2510.287;;;;;;;;;
102.736;3.48168;6.436653;2699.915;;;;;;;;;
102.936;3.49612;6.451754;2929.398;;;;;;;;;
103.126;3.51248;6.468768;3182.552;;;;;;;;;
103.292;3.52892;6.485164;3434.056;;;;;;;;;
103.446;3.54568;6.502515;3688.945;;;;;;;;;
103.592;3.56288;6.520437;3942.97;;;;;;;;;
103.726;3.5798;6.537978;4193.905;;;;;;;;;
103.856;3.5972;6.556202;4448.912;;;;;;;;;
103.98;3.6148;6.57397;4703.07;;;;;;;;;
104.098;3.63248;6.592052;4957.015;;;;;;;;;
104.214;3.6506;6.610528;5211.568;;;;;;;;;
104.326;3.66884;6.629726;5468.051;;;;;;;;;
104.434;3.68708;6.648082;5720.309;;;;;;;;;
104.542;3.70604;6.667659;5975.942;;;;;;;;;
104.652;3.726;6.687777;6229.805;;;;;;;;;
104.816;3.7568;6.709767;6467.204;;;;;;;;;
105.016;3.79688;6.704301;6433.554;;;;;;;;;
105.216;3.83956;6.703009;6477.804;;;;;;;;;
105.416;3.88584;6.700383;6512.526;;;;;;;;;
105.616;3.93532;6.70506;6542.953;;;;;;;;;
105.816;3.98748;6.709487;6548.507;;;;;;;;;
106.016;4.04284;6.715633;6562.766;;;;;;;;;
106.216;4.10176;6.739564;6575.209;;;;;;;;;
106.416;4.16224;6.92732;6587.294;;;;;;;;;
106.616;4.22016;7.356943;6589.583;;;;;;;;;
106.816;4.27076;7.945573;6578.903;;;;;;;;;
107.016;4.311;8.307006;6575.922;;;;;;;;;
107.216;4.3448;8.31876;6555.314;;;;;;;;;
107.416;4.37368;8.308587;6534.188;;;;;;;;;
107.616;4.398;8.304623;6537.173;;;;;;;;;
107.816;4.41784;8.302309;6550.419;;;;;;;;;
108.016;4.43332;8.299805;6568.083;;;;;;;;;
108.216;4.44456;8.298089;6585.097;;;;;;;;;
108.416;4.45176;8.297519;6594.633;;;;;;;;;
108.616;4.45516;8.296794;6592.625;;;;;;;;;
108.816;4.45552;8.295909;6572.877;;;;;;;;;
109.016;4.455;8.294984;6555.184;;;;;;;;;
109.216;4.45308;8.29437;6540.807;;;;;;;;;
109.416;4.44952;8.29331;6521.576;;;;;;;;;
109.616;4.44404;8.290054;6470.989;;;;;;;;;
109.816;4.43588;8.281813;6339.059;;;;;;;;;
110.016;4.425;8.268785;6167.092;;;;;;;;;
110.216;4.4116;8.251856;5957.862;;;;;;;;;
110.414;4.39572;8.229833;5708.834;;;;;;;;;
110.594;4.37932;8.206512;5455.874;;;;;;;;;
110.762;4.36256;8.182642;5203.794;;;;;;;;;
110.92;4.34564;8.158181;4951.609;;;;;;;;;
111.076;4.32816;8.133766;4697.461;;;;;;;;;
111.23;4.31044;8.108798;4444.561;;;;;;;;;
111.38;4.29272;8.083291;4191.218;;;;;;;;;
111.53;4.27484;8.057815;3939.202;;;;;;;;;
111.678;4.25684;8.031514;3685.164;;;;;;;;;
111.828;4.23832;8.005604;3431.333;;;;;;;;;
111.98;4.21944;7.97978;3176.294;;;;;;;;;
112.13;4.20092;7.953231;2924.441;;;;;;;;;
112.286;4.182;7.926309;2671.145;;;;;;;;;
112.446;4.16316;7.900517;2417.947;;;;;;;;;
112.616;4.14384;7.874358;2163.377;;;;;;;;;
112.79;4.1248;7.847503;1910.04;;;;;;;;;
112.974;4.10572;7.821056;1658.347;;;;;;;;;
113.172;4.08656;7.794561;1407.129;;;;;;;;;
113.372;4.06908;7.770713;1179.493;;;;;;;;;
113.572;4.05344;7.749556;981.4291;;;;;;;;;
113.772;4.04004;7.730915;812.0231;;;;;;;;;
113.972;4.0288;7.715768;669.9894;;;;;;;;;
114.172;4.02004;7.703622;560.5662;;;;;;;;;
114.372;4.01352;7.694876;481.499;;;;;;;;;
114.572;4.00948;7.689628;433.0825;;;;;;;;;
114.772;4.00784;7.686282;416.035;;;;;;;;;
114.972;4.0078;7.685614;420.9104;;;;;;;;;
115.172;4.00816;7.68556;427.5016;;;;;;;;;
115.372;4.0096;7.685535;434.2032;;;;;;;;;
115.572;4.0126;7.686232;447.4068;;;;;;;;;
115.772;4.01736;7.688376;493.5589;;;;;;;;;
115.972;4.02484;7.696282;618.051;;;;;;;;;
116.172;4.03536;7.708172;790.6476;;;;;;;;;
116.372;4.049;7.722311;1008.703;;;;;;;;;
116.566;4.06532;7.740559;1261.699;;;;;;;;;
116.734;4.08164;7.758728;1514.369;;;;;;;;;
116.886;4.09824;7.777161;1765.548;;;;;;;;;
117.03;4.11544;7.795934;2020.352;;;;;;;;;
117.164;4.1328;7.814585;2276.974;;;;;;;;;
117.292;4.1506;7.833482;2532.934;;;;;;;;;
117.414;4.16864;7.852973;2788.437;;;;;;;;;
117.53;4.18668;7.872604;3042.558;;;;;;;;;
117.642;4.20492;7.891841;3295.727;;;;;;;;;
117.75;4.2232;7.910784;3549.268;;;;;;;;;
117.856;4.24188;7.930407;3803.29;;;;;;;;;
117.958;4.26052;7.950731;4057.916;;;;;;;;;
118.058;4.2794;7.971489;4315.376;;;;;;;;;
118.156;4.2986;7.991923;4572.687;;;;;;;;;
118.252;4.3178;8.012069;4830.98;;;;;;;;;
118.348;4.33748;8.032806;5091.014;;;;;;;;;
118.44;4.35676;8.054198;5345.23;;;;;;;;;
118.532;4.37648;8.07558;5599.607;;;;;;;;;
118.624;4.3966;8.097663;5855.222;;;;;;;;;
118.718;4.41756;8.120275;6110.547;;;;;;;;;
118.822;4.4412;8.145659;6367.543;;;;;;;;;
118.984;4.47896;8.178388;6618.232;;;;;;;;;
119.184;4.5278;8.180515;6605.94;;;;;;;;;
119.384;4.579;8.193248;6615.01;;;;;;;;;
119.584;4.63264;8.205113;6615.077;;;;;;;;;
119.784;4.68884;8.213785;6617.091;;;;;;;;;
119.984;4.748;8.150978;6626.262;;;;;;;;;
120.184;4.81104;8.133134;6643.591;;;;;;;;;
120.384;4.87736;8.187854;6644.817;;;;;;;;;
120.584;4.94272;8.680207;6641.265;;;;;;;;;
120.784;4.99896;9.385575;6640.894;;;;;;;;;
120.984;5.04144;10.10045;6648.437;;;;;;;;;
121.184;5.06932;10.48383;6653.64;;;;;;;;;
121.384;5.08488;10.62899;6657.285;;;;;;;;;
121.584;5.09016;10.65244;6647.384;;;;;;;;;
121.784;5.08916;10.6532;6615.654;;;;;;;;;
121.984;5.08268;10.65088;6575.81;;;;;;;;;
122.184;5.06876;10.63399;6377.946;;;;;;;;;
122.342;5.05196;10.58394;6124.979;;;;;;;;;
122.468;5.035041;10.53218;5870.368;;;;;;;;;
122.576;5.01816;10.4843;5617.676;;;;;;;;;
122.676;5.00076;10.43775;5362.902;;;;;;;;;
122.77;4.98304;10.39377;5106.166;;;;;;;;;
122.86;4.96484;10.35101;4847.032;;;;;;;;;
122.944;4.94684;10.30815;4592.2;;;;;;;;;
123.024;4.92872;10.26744;4337.249;;;;;;;;;
123.102;4.91036;10.22623;4081.119;;;;;;;;;
123.178;4.89168;10.18505;3825.229;;;;;;;;;
123.252;4.87264;10.14423;3567.516;;;;;;;;;
123.324;4.8536;10.10404;3312.464;;;;;;;;;
123.396;4.83424;10.064;3053.176;;;;;;;;;
123.468;4.8144;10.02334;2791.644;;;;;;;;;
123.538;4.79464;9.984108;2532.313;;;;;;;;;
123.606;4.77504;9.946144;2274.403;;;;;;;;;
123.674;4.75512;9.906307;2013.002;;;;;;;;;
123.742;4.73472;9.86711;1748.703;;;;;;;;;
123.808;4.71468;9.828985;1490.334;;;;;;;;;
123.872;4.69504;9.7921;1238.252;;;;;;;;;
123.936;4.6752;9.755095;987.1522;;;;;;;;;
124;4.65528;9.717643;733.8075;;;;;;;;;
124.068;4.63396;9.67848;470.8837;;;;;;;;;
124.136;4.61236;9.639338;205.5693;;;;;;;;;
124.146;4.60916;9.633526;166.5909;;;;;;;;;
Specimen;2;;;;;;;;;;;
Specimen label;;;;;;;;;;;;
Width;2.330000;mm;;;;;;;;;;
Thickness;2.570000;mm;;;;;;;;;;
Length;20;mm;;;;;;;;;;
Diameter;9.970000;mm;;;;;;;;;;
Inner diameter;8.000000;mm;;;;;;;;;;
Outer diameter;10;mm;;;;;;;;;;
Wall thickness;1.000000;mm;;;;;;;;;;
Area;0.059881;cm^2;;;;;;;;;;
Linear density;100;tex;;;;;;;;;;
Sled weight;10;N;;;;;;;;;;
Loading span;10;mm;;;;;;;;;;
Support span;100;mm;;;;;;;;;;
Span ratio;2;;;;;;;;;;;
Fixture type;4-point;;;;;;;;;;;
Extensometer;10;mm;;;;;;;;;;
Included;;;;;;;;;;;;
Final width;10;mm;;;;;;;;;;
Final thickness;1.000000;mm;;;;;;;;;;
Final length;100;mm;;;;;;;;;;
Final diameter;5.000000;mm;;;;;;;;;;
Final Inner diameter;8.000000;mm;;;;;;;;;;
Final outer diameter;10;mm;;;;;;;;;;
Final wall thickness;1.000000;mm;;;;;;;;;;
Final area;0.100000;cm^2;;;;;;;;;;
Final linear density;100;tex;;;;;;;;;;
Custom text input  1;;;;;;;;;;;;
Custom text input  2;;;;;;;;;;;;
Custom text input  3;;;;;;;;;;;;
Custom text input  4;;;;;;;;;;;;
Custom text input  5;;;;;;;;;;;;
Custom text input  6;;;;;;;;;;;;
Custom text input  7;;;;;;;;;;;;
Custom text input  8;;;;;;;;;;;;
Custom text input  9;;;;;;;;;;;;
Custom text input 10;;;;;;;;;;;;
Custom text input 11;;;;;;;;;;;;
Custom text input 12;;;;;;;;;;;;
Custom text input 13;;;;;;;;;;;;
Custom text input 14;;;;;;;;;;;;
Custom text input 15;;;;;;;;;;;;
Custom text input 16;;;;;;;;;;;;
Custom text input 17;;;;;;;;;;;;
Custom text input 18;;;;;;;;;;;;
Custom text input 19;;;;;;;;;;;;
Custom text input 20;;;;;;;;;;;;
Custom number input  1;0.000000;;;;;;;;;;;
Custom number input  2;0.000000;;;;;;;;;;;
Custom number input  3;0.000000;;;;;;;;;;;
Custom number input  4;0.000000;;;;;;;;;;;
Custom number input  5;0.000000;;;;;;;;;;;
Custom number input  6;0.000000;;;;;;;;;;;
Custom number input  7;0.000000;;;;;;;;;;;
Custom number input  8;0.000000;;;;;;;;;;;
Custom number input  9;0.000000;;;;;;;;;;;
Custom number input 10;0.000000;;;;;;;;;;;
Time sec;Extension mm;Strain 1 %;Load N;;;;;;;;;
0;4.60852;0.000189059;233.2767;;;;;;;;;
0.1;4.60852;0.0002605981;232.7277;;;;;;;;;
0.2;4.60852;0.0001132326;233.1279;;;;;;;;;
0.3;4.60852;0.0003246646;233.0849;;;;;;;;;
0.4;4.60852;5.605052e-005;232.95;;;;;;;;;
0.5;4.60852;0.0002430073;232.6883;;;;;;;;;
0.6;4.60852;0.000502532;232.7281;;;;;;;;;
0.7;4.60852;0.0001219791;233.2335;;;;;;;;;
0.8;4.6086;4.411913e-005;232.9355;;;;;;;;;
0.9;4.60868;-8.330344e-005;232.8925;;;;;;;;;
1;4.60884;5.859847e-005;232.9389;;;;;;;;;
1.1;4.60908;8.870857e-005;233.2555;;;;;;;;;
1.2;4.60936;-0.0001987703;234.1188;;;;;;;;;
1.3;4.60972;6.320442e-005;234.6412;;;;;;;;;
1.4;4.61012;0.0001192106;235.271;;;;;;;;;
1.5;4.61064;0.0002414883;236.994;;;;;;;;;
1.6;4.61128;0.0003369879;239.0191;;;;;;;;;
1.7;4.61204;0.000611923;241.1086;;;;;;;;;
1.8;4.61292;0.0008707862;245.6555;;;;;;;;;
1.9;4.614;0.00155489;256.603;;;;;;;;;
2;4.61532;0.002659015;276.9017;;;;;;;;;
2.1;4.61684;0.005098469;304.3046;;;;;;;;;
2.2;4.61872;0.006800533;335.6999;;;;;;;;;
2.3;4.621;0.009185916;372.8695;;;;;;;;;
2.4;4.6236;0.01212913;415.2936;;;;;;;;;
2.5;4.62648;0.01507717;462.4092;;;;;;;;;
2.6;4.62972;0.01920757;514.4446;;;;;;;;;
2.7;4.63332;0.0234929;572.4213;;;;;;;;;
2.8;4.63732;0.02822481;636.2477;;;;;;;;;
2.9;4.64176;0.03357127;706.2227;;;;;;;;;
3;4.6466;0.0388295;781.4324;;;;;;;;;
3.1;4.65184;0.04527568;864.45;;;;;;;;;
3.2;4.65752;0.05185932;953.1057;;;;;;;;;
3.3;4.66356;0.05937493;1048.225;;;;;;;;;
3.4;4.67;0.0667773;1148.342;;;;;;;;;
3.5;4.6768;0.07499345;1253.27;;;;;;;;;
3.6;4.68392;0.08366304;1363.046;;;;;;;;;
3.7;4.69144;0.09264001;1476.095;;;;;;;;;
3.8;4.69932;0.1017987;1595.265;;;;;;;;;
3.9;4.7076;0.110979;1721.126;;;;;;;;;
3.998;4.71604;0.120787;1848.132;;;;;;;;;
4.092;4.72452;0.1306218;1974.601;;;;;;;;;
4.184;4.73316;0.1399701;2102.324;;;;;;;;;
4.274;4.74184;0.1499108;2228.807;;;;;;;;;
4.36;4.7504;0.1595189;2354.354;;;;;;;;;
4.446;4.7592;0.1698908;2482.352;;;;;;;;;
4.528;4.76788;0.1799582;2607.857;;;;;;;;;
4.61;4.7768;0.1906241;2735.062;;;;;;;;;
4.69;4.78576;0.2010267;2860.889;;;;;;;;;
4.768;4.79464;0.2113607;2987.133;;;;;;;;;
4.846;4.80368;0.2218387;3114.407;;;;;;;;;
4.922;4.81268;0.2320374;3240.305;;;;;;;;;
4.998;4.82192;0.2420299;3367.415;;;;;;;;;
5.072;4.83112;0.2524838;3493.618;;;;;;;;;
5.144;4.84024;0.262882;3619.662;;;;;;;;;
5.216;4.84948;0.2736046;3747.059;;;;;;;;;
5.288;4.85896;0.2841738;3875.552;;;;;;;;;
5.358;4.8682;0.2954304;4000.894;;;;;;;;;
5.43;4.87776;0.3065174;4129.316;;;;;;;;;
5.5;4.8872;0.3175292;4256.868;;;;;;;;;
5.57;4.89676;0.3287816;4384.682;;;;;;;;;
5.638;4.906241;0.3392756;4509.883;;;;;;;;;
5.706;4.91584;0.3500236;4636.346;;;;;;;;;
5.772;4.92532;0.3610937;4761.552;;;;;;;;;
5.838;4.93492;0.3723706;4887.949;;;;;;;;;
5.904;4.94456;0.3836665;5014.327;;;;;;;;;
5.97;4.95436;0.3958567;5140.186;;;;;;;;;
6.036;4.9642;0.4076356;5265.655;;;;;;;;;
6.102;4.97416;0.4193248;5392.814;;;;;;;;;
6.168;4.98416;0.4313939;5520.165;;;;;;;;;
6.234;4.99432;0.4431718;5647.172;;;;;;;;;
6.3;5.00452;0.4554618;5772.778;;;;;;;;;
6.368;5.015041;0.4685363;5900.186;;;;;;;;;
6.436;5.0256;0.4815939;6026.858;;;;;;;;;
6.506;5.03656;0.4957418;6153.243;;;;;;;;;
6.58;5.04816;0.5108518;6279.895;;;;;;;;;
6.66;5.060841;0.5276672;6405.655;;;;;;;;;
6.754;5.0758;0.5473375;6532.58;;;;;;;;;
6.854;5.0918;0.5680923;6629.742;;;;;;;;;
6.954;5.1078;0.587421;6685.391;;;;;;;;;
7.054;5.12384;0.6047388;6708.623;;;;;;;;;
7.154;5.14012;0.6130708;6654.381;;;;;;;;;
7.254;5.15668;0.6192771;6644.046;;;;;;;;;
7.354;5.17344;0.6265772;6647.436;;;;;;;;;
7.454;5.1902;0.632485;6653.891;;;;;;;;;
7.554;5.2072;0.6363861;6658.017;;;;;;;;;
7.654;5.22448;0.6394784;6656.271;;;;;;;;;
7.754;5.24196;0.6402451;6642.438;;;;;;;;;
7.854;5.2598;0.6406809;6630.045;;;;;;;;;
7.954;5.27776;0.6425299;6629.687;;;;;;;;;
8.054;5.29596;0.6444911;6632.785;;;;;;;;;
8.154;5.31448;0.6474991;6637.361;;;;;;;;;
8.254;5.3332;0.6515674;6642.595;;;;;;;;;
8.354;5.35224;0.6576484;6653.373;;;;;;;;;
8.454;5.3716;0.6700167;6664.824;;;;;;;;;
8.554;5.3912;0.7069237;6664.64;;;;;;;;;
8.654;5.41056;0.7890859;6663.837;;;;;;;;;
8.754;5.42932;0.8963708;6664.578;;;;;;;;;
8.854;5.44724;1.040239;6660.079;;;;;;;;;
8.954;5.46392;1.19688;6667.039;;;;;;;;;
9.054;5.479;1.361719;6672.551;;;;;;;;;
9.154;5.492441;1.512139;6675.895;;;;;;;;;
9.254;5.50416;1.63459;6674.388;;;;;;;;;
9.354;5.51436;1.719061;6657.998;;;;;;;;;
9.454;5.52308;1.778267;6662.033;;;;;;;;;
9.554;5.53032;1.8306;6671.485;;;;;;;;;
9.654;5.536;1.881402;6672.885;;;;;;;;;
9.754;5.5402;1.920363;6674.536;;;;;;;;;
9.854;5.54304;1.94785;6675.146;;;;;;;;;
9.954;5.54452;1.964583;6670.716;;;;;;;;;
10.054;5.54488;1.973955;6659.69;;;;;;;;;
10.154;5.5448;1.978537;6646.468;;;;;;;;;
10.254;5.544481;1.981803;6635.668;;;;;;;;;
10.354;5.5436;1.983316;6627.177;;;;;;;;;
10.454;5.542081;1.98476;6617.58;;;;;;;;;
10.554;5.53996;1.985274;6606.55;;;;;;;;;
10.654;5.53712;1.985231;6589.106;;;;;;;;;
10.754;5.53348;1.98323;6553.338;;;;;;;;;
10.854;5.52884;1.978688;6483.386;;;;;;;;;
10.954;5.52316;1.972786;6394.938;;;;;;;;;
11.054;5.51652;1.965315;6293.853;;;;;;;;;
11.154;5.50896;1.956881;6180.605;;;;;;;;;
11.252;5.50064;1.946916;6054.929;;;;;;;;;
11.34;5.49232;1.936564;5929.536;;;;;;;;;
11.422;5.48396;1.926386;5804.497;;;;;;;;;
11.5;5.47536;1.916353;5676.745;;;;;;;;;
11.574;5.46668;1.90613;5548.87;;;;;;;;;
11.644;5.45816;1.895792;5423.517;;;;;;;;;
11.712;5.449521;1.885471;5297.579;;;;;;;;;
11.778;5.44076;1.875487;5169.94;;;;;;;;;
11.842;5.432001;1.864642;5042.718;;;;;;;;;
11.904;5.42312;1.853869;4915.834;;;;;;;;;
11.966;5.41396;1.842382;4786.973;;;;;;;;;
12.026;5.404881;1.830736;4658.514;;;;;;;;;
12.084;5.39588;1.820622;4532.838;;;;;;;;;
12.142;5.38668;1.80939;4404.04;;;;;;;;;
12.2;5.37744;1.798473;4275.278;;;;;;;;;
12.258;5.367961;1.787673;4146.536;;;;;;;;;
12.314;5.3586;1.776797;4018.566;;;;;;;;;
12.37;5.34916;1.765176;3889.321;;;;;;;;;
12.424;5.33984;1.754339;3762.477;;;;;;;;;
12.478;5.33032;1.742929;3634.629;;;;;;;;;
12.532;5.32072;1.731092;3505.871;;;;;;;;;
12.584;5.31136;1.719045;3380.538;;;;;;;;;
12.636;5.30184;1.707426;3252.936;;;;;;;;;
12.688;5.29228;1.695766;3124.624;;;;;;;;;
12.74;5.28252;1.684606;2996.136;;;;;;;;;
12.792;5.27272;1.673152;2866.094;;;;;;;;;
12.842;5.26324;1.661981;2739.72;;;;;;;;;
12.892;5.25372;1.650399;2612.874;;;;;;;;;
12.942;5.24424;1.638831;2486.895;;;;;;;;;
12.994;5.23428;1.62651;2358.085;;;;;;;;;
13.044;5.22468;1.615327;2232.254;;;;;;;;;
13.094;5.21508;1.603677;2106.673;;;;;;;;;
13.144;5.205401;1.591768;1980.547;;;;;;;;;
13.194;5.19564;1.580223;1854.204;;;;;;;;;
13.244;5.18588;1.568938;1728.838;;;;;;;;;
13.294;5.176041;1.557301;1602.689;;;;;;;;;
13.344;5.16624;1.545353;1475.312;;;;;;;;;
13.394;5.15644;1.533297;1348.511;;;;;;;;;
13.446;5.146241;1.520921;1218.893;;;;;;;;;
13.498;5.136;1.508725;1089.008;;;;;;;;;
13.548;5.12616;1.497357;963.3726;;;;;;;;;
13.598;5.11632;1.485293;837.3058;;;;;;;;;
13.65;5.10612;1.472995;708.165;;;;;;;;;
13.702;5.09592;1.460655;580.8915;;;;;;;;;
13.754;5.08584;1.448314;453.893;;;;;;;;;
13.806;5.0758;1.435807;327.939;;;;;;;;;
13.86;5.0654;1.422009;198.2542;;;;;;;;;
13.914;5.05512;1.409211;72.1189;;;;;;;;;
13.968;5.044841;1.396782;-53.36448;;;;;;;;;
14.024;5.03424;1.383811;-182.6826;;;;;;;;;
14.08;5.02372;1.371059;-310.2387;;;;;;;;;
14.138;5.01292;1.357682;-439.2785;;;;;;;;;
14.196;5.00224;1.344523;-565.1383;;;;;;;;;
14.256;4.99132;1.330538;-692.471;;;;;;;;;
14.318;4.98028;1.315951;-819.6944;;;;;;;;;
14.382;4.96908;1.301604;-946.0169;;;;;;;;;
14.448;4.95772;1.286753;-1072.161;;;;;;;;;
14.518;4.94592;1.271419;-1200.503;;;;;;;;;
14.59;4.934;1.255741;-1326.61;;;;;;;;;
14.666;4.92176;1.239038;-1451.737;;;;;;;;;
14.748;4.90884;1.220587;-1577.617;;;;;;;;;
14.836;4.89532;1.199133;-1703.638;;;;;;;;;
14.934;4.8808;1.166481;-1830.223;;;;;;;;;
15.034;4.8668;1.105834;-1919.497;;;;;;;;;
15.134;4.85404;1.017469;-1935.844;;;;;;;;;
15.234;4.84284;0.9350289;-1916.987;;;;;;;;;
15.334;4.83296;0.8712426;-1895.504;;;;;;;;;
15.434;4.82444;0.82145;-1877.12;;;;;;;;;
15.534;4.81736;0.7818921;-1860.973;;;;;;;;;
15.634;4.8116;0.7515384;-1848.49;;;;;;;;;
15.734;4.80704;0.7275119;-1838.061;;;;;;;;;
15.834;4.8038;0.7098864;-1829.247;;;;;;;;;
15.934;4.80188;0.6983237;-1820.059;;;;;;;;;
16.034;4.80116;0.6921682;-1811.112;;;;;;;;;
16.134;4.80112;0.6900469;-1801.189;;;;;;;;;
16.234;4.8014;0.6889327;-1793.316;;;;;;;;;
16.334;4.8022;0.6884118;-1786.637;;;;;;;;;
16.434;4.80376;0.6886372;-1779.871;;;;;;;;;
16.534;4.80612;0.6900884;-1769.943;;;;;;;;;
16.634;4.80948;0.6967202;-1746.868;;;;;;;;;
16.734;4.81396;0.7097575;-1704.538;;;;;;;;;
16.834;4.81964;0.7260996;-1649.357;;;;;;;;;
16.934;4.82656;0.7455205;-1580.28;;;;;;;;;
17.034;4.8346;0.7676709;-1498.417;;;;;;;;;
17.134;4.84376;0.7928377;-1399.55;;;;;;;;;
17.234;4.85408;0.8217628;-1285.312;;;;;;;;;
17.332;4.8652;0.8513479;-1157.811;;;;;;;;;
17.42;4.87592;0.8787699;-1032.489;;;;;;;;;
17.502;4.8866;0.9049523;-904.6502;;;;;;;;;
17.578;4.89708;0.9304686;-776.3736;;;;;;;;;
17.648;4.90724;0.9533192;-650.302;;;;;;;;;
17.714;4.91724;0.9754878;-524.1586;;;;;;;;;
17.764;4.92512;0.9923794;-425.1656;;;;;;;;;