File: Tensile LDPE/data/Tensile_testing_LDPE_CD_Data_CD_strain_percent_stress_MPa.csv
Strain1[%],Stress1[MPa],Strain2,Stress2,Strain3,Stress3,Strain4,Stress4,Strain5,Stress5,Strain6,Stress6,Strain7,Stress7,Strain8,Stress8,Strain9,Stress9,Strain10,Stress10
0,0.618992,0,0.612641,0,0.588768,0,0.609592,0,0.612566,0,0.608254,0,0.596968,0,0.596497,0,0.61358,0,0.588177
-0.00000585991,0.607342,-1.96231e-06,0.601276,7.79154e-07,0.577848,3.5466e-06,0.598763,-6.50803e-06,0.600699,8.40531e-06,0.597017,-2.122e-06,0.587435,-1.49643e-06,0.586697,-6.52545e-07,0.601798,2.11957e-06,0.579368
3.48545e-07,0.59677,-4.75315e-06,0.592189,-4.83725e-06,0.568162,4.83034e-06,0.589971,-9.42956e-06,0.592594,7.12388e-06,0.586504,-4.02636e-07,0.579941,7.79661e-06,0.576908,3.40411e-06,0.591957,6.01089e-06,0.570461
-8.71363e-08,0.587389,-4.58962e-06,0.583344,-2.39157e-06,0.5605,2.54572e-06,0.580816,1.03562e-06,0.580785,7.86233e-06,0.575425,2.70963e-06,0.572242,-6.50621e-07,0.569996,-2.25128e-06,0.582383,8.1522e-07,0.561711
-1.78629e-06,0.591845,-3.87011e-06,0.617596,2.27253e-06,0.6012,9.57365e-07,0.573717,-3.43389e-06,0.603107,1.75925e-06,0.575168,-5.00575e-07,0.589732,1.6374e-06,0.575395,1.09193e-05,0.641805,9.59134e-05,0.639127
0.172823,1.33408,0.218425,1.49732,0.222748,1.47332,0.0227942,0.779122,0.207006,1.35933,0.16669,1.24603,0.184059,1.35703,0.17193,1.30145,0.240699,1.57875,0.252034,1.60441
0.486332,2.42284,0.532536,2.5348,0.533969,2.48872,0.32639,1.76714,0.521063,2.3529,0.479053,2.27073,0.497229,2.42079,0.484304,2.38599,0.553992,2.60779,0.564822,2.61205
0.800047,3.32768,0.846157,3.40756,0.845851,3.35734,0.639332,2.6675,0.834792,3.19324,0.792084,3.1202,0.810697,3.30498,0.796384,3.29614,0.867327,3.49145,0.878213,3.47279
1.11352,4.10685,1.1604,4.16246,1.15743,4.11175,0.952978,3.44174,1.14886,3.92661,1.1045,3.85302,1.12406,4.06591,1.10845,4.07889,1.18004,4.26204,1.19089,4.22172
1.42731,4.78841,1.47418,4.82374,1.46902,4.7764,1.26607,4.11793,1.46271,4.57314,1.41731,4.49873,1.43729,4.73318,1.42111,4.76573,1.49359,4.93592,1.50397,4.8788
1.74074,5.39505,1.78804,5.40875,1.78083,5.37182,1.57929,4.71676,1.77653,5.14588,1.73016,5.0747,1.75077,5.32533,1.73308,5.38165,1.80653,5.53661,1.81714,5.46642
2.05475,5.93155,2.10214,5.93079,2.09216,5.90432,1.89276,5.25067,2.0906,5.6589,2.04273,5.59005,2.06424,5.85078,2.04559,5.92985,2.11979,6.07632,2.12992,5.98958
2.36826,6.40907,2.41591,6.39451,2.40399,6.37988,2.20583,5.72807,2.40446,6.11737,2.35563,6.04641,2.3774,6.3183,2.35772,6.41795,2.43313,6.55716,2.44315,6.45514
2.68185,6.8368,2.73001,6.80877,2.71551,6.80875,2.51932,6.15491,2.71841,6.52743,2.66811,6.45703,2.69085,6.73434,2.66998,6.85818,2.74614,6.98754,2.75596,6.87151
2.99562,7.21684,3.04394,7.17761,3.0272,7.19324,2.83258,6.53831,3.0324,6.89477,2.98114,6.82619,3.00431,7.10528,2.98229,7.24858,3.05962,7.37454,3.06922,7.24495
3.30945,7.55657,3.35783,7.50668,3.33876,7.53398,3.14582,6.88071,3.34624,7.22381,3.29364,7.15417,3.31743,7.43439,3.29445,7.5983,3.37268,7.71879,3.38215,7.57876
3.62273,7.85645,3.67185,7.79985,3.65059,7.84342,3.4592,7.18677,3.66022,7.51835,3.60641,7.44736,3.63115,7.72979,3.60681,7.91107,3.68561,8.02322,3.69511,7.87482
3.93665,8.1261,3.98571,8.0607,3.96212,8.12363,3.77238,7.46158,3.97414,7.77811,3.91919,7.71183,3.94415,7.99187,3.91912,8.19244,3.99918,8.29839,4.00817,8.14176
4.25004,8.3627,4.29956,8.29262,4.27381,8.37219,4.08562,7.70675,4.28788,8.01201,4.23182,7.94727,4.25796,8.22601,4.23133,8.43978,4.31215,8.54491,4.32114,8.37988
4.56387,8.57226,4.61376,8.49799,4.58532,8.59338,4.39914,7.92425,4.6022,8.22173,4.54463,8.15813,4.57114,8.43072,4.54369,8.66038,4.62536,8.76064,4.63411,8.58884
4.87763,8.75764,4.92742,8.67823,4.89719,8.79107,4.71215,8.11647,4.9158,8.40581,4.85725,8.34257,4.88428,8.61239,4.85591,8.85761,4.93868,8.95304,4.9472,8.77443
5.19102,8.91945,5.24158,8.8354,5.20852,8.964,5.02569,8.28688,5.22993,8.56651,5.17014,8.50654,5.19805,8.77063,5.16822,9.03109,5.25158,9.12446,5.26023,8.93915
5.50508,9.06066,5.55545,8.97597,5.52023,9.11638,5.33888,8.43801,5.5438,8.71041,5.4829,8.65107,5.51122,8.90897,5.48057,9.18095,5.56512,9.27149,5.57333,9.08163
5.81847,9.18427,5.86945,9.09733,5.83196,9.24956,5.65224,8.5708,5.85774,8.83696,5.79521,8.77489,5.82459,9.02872,5.79249,9.31085,5.87799,9.39893,5.886,9.20466
6.13202,9.28812,6.18323,9.19799,6.14336,9.3667,5.96536,8.68374,6.17155,8.94231,6.10831,8.88235,6.13799,9.13267,6.10517,9.42546,6.19136,9.51065,6.19929,9.3125
6.44593,9.37504,6.49722,9.28613,6.4553,9.46747,6.27874,8.7815,6.48554,9.03389,6.42112,8.97614,6.45127,9.21969,6.41711,9.52029,6.50463,9.60581,6.51248,9.40392
6.75951,9.44902,6.81131,9.35868,6.7666,9.55241,6.59217,8.86536,6.79952,9.11242,6.73351,9.0561,6.76474,9.29232,6.7296,9.60243,6.81771,9.6838,6.82508,9.47864
7.07315,9.51017,7.12504,9.41901,7.07865,9.62597,6.90522,8.93549,7.11343,9.17745,7.04663,9.1207,7.07813,9.35274,7.0419,9.67146,7.13097,9.74908,7.13846,9.54222
7.38688,9.55914,7.43912,9.46851,7.39009,9.68614,7.21867,8.99276,7.42733,9.23023,7.35892,9.17622,7.39137,9.40024,7.35403,9.72687,7.44417,9.80531,7.45117,9.59517
7.70044,9.59635,7.75306,9.50555,7.70152,9.73311,7.53195,9.04004,7.74132,9.27391,7.67192,9.21932,7.7051,9.43858,7.66645,9.77028,7.75734,9.84767,7.76433,9.63355
8.01428,9.62452,8.0669,9.53559,8.0134,9.76962,7.84515,9.07766,8.05517,9.30893,7.98457,9.25219,8.01806,9.46641,7.97853,9.80422,8.07064,9.87794,8.07736,9.66482
8.32768,9.64539,8.38086,9.55776,8.32511,9.79914,8.15847,9.10666,8.36901,9.3334,8.29724,9.27912,8.33177,9.4868,8.29082,9.82964,8.38355,9.9011,8.39024,9.68809
8.64147,9.65611,8.69475,9.57068,8.63648,9.81956,8.47169,9.12751,8.683,9.34951,8.61026,9.29683,8.64494,9.49998,8.60317,9.84546,8.69698,9.91651,8.70352,9.70178
8.95518,9.6605,9.00882,9.57727,8.94838,9.83356,8.78518,9.14023,8.99699,9.36018,8.92275,9.30714,8.95836,9.50645,8.91537,9.85384,9.01,9.92295,9.01641,9.71073
9.26875,9.65953,9.32288,9.57999,9.25966,9.84088,9.09852,9.14689,9.31103,9.36458,9.23545,9.31402,9.27184,9.50638,9.22768,9.8557,9.32328,9.92595,9.32924,9.7131
9.5826,9.65215,9.63641,9.57475,9.57151,9.84129,9.4114,9.1482,9.62464,9.36226,9.54834,9.31426,9.58492,9.50115,9.54009,9.85333,9.63661,9.92288,9.64258,9.7095
9.89597,9.64169,9.95079,9.56675,9.88307,9.83617,9.72516,9.14406,9.93889,9.35817,9.8609,9.30789,9.89858,9.49186,9.85209,9.84642,9.94959,9.91454,9.95539,9.69964
10.2099,9.62896,10.2646,9.55594,10.1946,9.82752,10.0383,9.137,10.2528,9.35082,10.1737,9.29966,10.2117,9.47998,10.1646,9.83539,10.263,9.90205,10.2685,9.68687
10.5234,9.61453,10.5784,9.54006,10.5066,9.81555,10.3514,9.12757,10.5665,9.33831,10.4863,9.28805,10.5253,9.46424,10.4766,9.81929,10.576,9.88628,10.5815,9.67233
10.837,9.59344,10.8924,9.52198,10.8179,9.80111,10.6649,9.1139,10.8805,9.32174,10.7991,9.2733,10.8386,9.44658,10.7892,9.80188,10.8892,9.86798,10.8944,9.65588
11.1508,9.57135,11.2062,9.5047,11.1297,9.78381,10.9779,9.09771,11.1943,9.30611,11.112,9.25678,11.152,9.42804,11.1012,9.78057,11.2025,9.84807,11.2076,9.63544
11.4644,9.54855,11.5203,9.48312,11.4413,9.76564,11.2914,9.08056,11.5083,9.28699,11.4244,9.23921,11.4654,9.40831,11.4136,9.75824,11.5156,9.82495,11.5203,9.61604
11.7781,9.52285,11.8342,9.46216,11.753,9.74521,11.6047,9.06283,11.8223,9.26511,11.7374,9.22012,11.7788,9.38544,11.7259,9.73466,11.8288,9.80052,11.8335,9.59396
12.0919,9.49844,12.1481,9.4387,12.0646,9.72279,11.9179,9.04185,12.1361,9.24401,12.05,9.20047,12.092,9.36099,12.0379,9.71151,12.1422,9.77768,12.1466,9.56898
12.4054,9.47548,12.4623,9.4162,12.3761,9.69971,12.2314,9.0208,12.4503,9.22501,12.3628,9.17844,12.4057,9.3392,12.3505,9.68757,12.4552,9.75319,12.4596,9.54388
12.7193,9.45073,12.7761,9.39456,12.6879,9.6774,12.5446,8.99974,12.7641,9.20309,12.6755,9.15697,12.7188,9.31612,12.6625,9.66399,12.7684,9.7274,12.7726,9.52172
13.0327,9.42699,13.0898,9.37205,12.9995,9.65328,12.8577,8.97803,13.0778,9.18134,12.9882,9.1369,13.0322,9.29176,12.9751,9.63695,13.0816,9.7034,13.0856,9.49775
13.3464,9.40436,13.4041,9.34945,13.311,9.63077,13.1713,8.95795,13.3921,9.16181,13.3011,9.11491,13.3458,9.26986,13.2872,9.61201,13.3949,9.67909,13.3987,9.47278
13.6602,9.38117,13.7178,9.32944,13.6228,9.60821,13.4843,8.93682,13.7058,9.13974,13.6137,9.09469,13.6589,9.24889,13.5993,9.58788,13.7081,9.65324,13.7117,9.45113
13.9736,9.35813,14.0319,9.30726,13.9343,9.58603,13.7979,8.91683,14.0199,9.11835,13.9264,9.076,13.9725,9.22648,13.9118,9.5628,14.0211,9.62918,14.0245,9.42887
14.2875,9.33559,14.3456,9.28441,14.246,9.56496,14.1109,8.89613,14.3337,9.09887,14.2392,9.05653,14.2856,9.20654,14.2243,9.54009,14.3346,9.6077,14.3377,9.4075
14.6011,9.31641,14.6598,9.2665,14.5577,9.54271,14.4244,8.87727,14.6476,9.08049,14.5518,9.03615,14.5993,9.18695,14.5361,9.51899,14.6475,9.58601,14.6506,9.38689
14.9148,9.2982,14.9737,9.24955,14.8691,9.52118,14.7376,8.85983,14.9616,9.06175,14.8646,9.01953,14.9125,9.1669,14.8487,9.4972,14.9608,9.56579,14.9636,9.36674
15.2284,9.27949,15.2875,9.23173,15.1811,9.50225,15.0508,8.84305,15.2754,9.04551,15.1775,9.00226,15.2259,9.14934,15.1606,9.47617,15.2738,9.54527,15.2769,9.34904
15.5421,9.26396,15.6016,9.21538,15.4925,9.48352,15.3643,8.82768,15.5894,9.03082,15.49,8.9862,15.5393,9.133,15.473,9.45811,15.5873,9.52712,15.5896,9.33282
15.8558,9.25022,15.9154,9.20103,15.8042,9.46739,15.6774,8.81376,15.9033,9.01316,15.803,8.97355,15.8526,9.11793,15.7854,9.43846,15.9004,9.51047,15.9029,9.31803
16.1694,9.23535,16.2294,9.18623,16.1158,9.45154,15.9908,8.79938,16.2172,8.99855,16.1154,8.95953,16.166,9.10443,16.0974,9.42157,16.2134,9.49374,16.2157,9.30318
16.483,9.22101,16.5434,9.17161,16.4274,9.43774,16.3041,8.7872,16.5313,8.98648,16.4283,8.94818,16.4794,9.09148,16.4101,9.40661,16.5268,9.47854,16.5288,9.29028
16.7968,9.21097,16.8572,9.16085,16.7391,9.42464,16.6173,8.77555,16.8451,8.97527,16.741,8.93658,16.7928,9.0781,16.722,9.39261,16.8401,9.46901,16.8419,9.27711
17.1102,9.20122,17.1713,9.15132,17.0507,9.41231,16.9307,8.76473,17.1591,8.96515,17.0536,8.92673,17.1062,9.06813,17.0344,9.3796,17.153,9.45583,17.1548,9.26556
17.4241,9.19412,17.4852,9.14235,17.3624,9.40104,17.244,8.75752,17.4731,8.9573,17.3664,8.91819,17.4194,9.05848,17.3468,9.36749,17.4664,9.44621,17.4678,9.25756
17.7376,9.18605,17.799,9.13338,17.674,9.39201,17.5571,8.7488,17.7867,8.94878,17.6792,8.9117,17.7329,9.05139,17.659,9.35682,17.7794,9.43802,17.7809,9.24986
18.0514,9.18149,18.1133,9.129,17.9856,9.38406,17.8707,8.74348,18.101,8.94202,17.9919,8.90514,18.0465,9.04497,17.9712,9.34759,18.0926,9.43002,18.0939,9.24334
18.3651,9.17654,18.4269,9.12257,18.2973,9.37725,18.1836,8.73862,18.4146,8.93493,18.3046,8.90103,18.3594,9.04025,18.2835,9.33919,18.406,9.42349,18.4069,9.23809
18.6784,9.17283,18.741,9.11749,18.6089,9.37256,18.4972,8.7335,18.7287,8.93154,18.6174,8.89813,18.6731,9.03515,18.5957,9.3306,18.7189,9.41698,18.7199,9.2331
18.9925,9.1702,19.0549,9.11315,18.9204,9.36763,18.8104,8.72906,19.0427,8.92823,18.9302,8.89394,18.9862,9.03143,18.9081,9.326,19.0326,9.41635,19.033,9.23053
19.306,9.16913,19.3688,9.1114,19.2321,9.36287,19.1237,8.72778,19.3565,8.9262,19.2428,8.89323,19.2998,9.02891,19.2202,9.32126,19.3454,9.41194,19.346,9.22732
19.6197,9.17004,19.683,9.11029,19.5438,9.35896,19.4372,8.72724,19.6706,8.9266,19.5554,8.89196,19.6131,9.02709,19.5326,9.31638,19.6585,9.40976,19.6588,9.22693
19.9334,9.17076,19.9965,9.11054,19.8555,9.35841,19.7501,8.72655,19.9842,8.92683,19.8684,8.89086,19.9264,9.02689,19.8449,9.31384,19.972,9.4091,19.9721,9.226
20.2469,9.17311,20.3107,9.11185,20.1669,9.35847,20.0637,8.72922,20.2983,8.92634,20.1808,8.89183,20.24,9.02771,20.157,9.3117,20.285,9.41207,20.2848,9.22664
20.5606,9.17385,20.6246,9.1133,20.4788,9.35853,20.3768,8.72948,20.6123,8.92843,20.4939,8.89413,20.5533,9.02966,20.4695,9.30984,20.5983,9.41113,20.5981,9.2284
20.8743,9.17632,20.9386,9.115,20.7904,9.35957,20.6902,8.73113,20.9262,8.93035,20.8063,8.89634,20.8664,9.03089,20.7815,9.31017,20.9114,9.41041,20.9109,9.23157
21.1879,9.18061,21.2524,9.11697,21.1018,9.3629,21.0034,8.7334,21.24,8.93368,21.1194,8.90004,21.1801,9.03361,21.0941,9.31189,21.2246,9.41631,21.2242,9.23523
21.5018,9.18405,21.5666,9.12057,21.4136,9.36515,21.3169,8.73709,21.5542,8.93781,21.4319,8.90378,21.4933,9.03908,21.4062,9.31296,21.5378,9.41801,21.5371,9.23635
21.8152,9.1885,21.8803,9.12507,21.725,9.36749,21.63,8.74276,21.8679,8.94238,21.7444,8.9084,21.8067,9.04371,21.7184,9.31675,21.851,9.42319,21.8499,9.24087
22.1289,9.197,22.1943,9.13062,22.0368,9.37171,21.9433,8.74817,22.182,8.94862,22.0575,8.91307,22.1202,9.0438,22.0308,9.31987,22.1642,9.42866,22.1632,9.2459
22.4427,9.20329,22.5082,9.13625,22.3485,9.3761,22.2566,8.75346,22.4957,8.95408,22.37,8.91852,22.4334,9.05017,22.3429,9.32288,22.4775,9.43155,22.4762,9.24993
22.7562,9.20679,22.8223,9.14394,22.66,9.38049,22.57,8.7601,22.8099,8.96198,22.6828,8.92413,22.747,9.06082,22.6553,9.32631,22.7905,9.43714,22.789,9.25754
23.0701,9.21458,23.136,9.14993,22.9719,9.3859,22.8831,8.76602,23.1236,8.96919,22.9956,8.93136,23.0601,9.06732,22.9676,9.32934,23.104,9.44119,23.1022,9.26446
23.3834,9.22068,23.45,9.15582,23.2834,9.39296,23.1965,8.77236,23.4376,8.97536,23.3081,8.9378,23.3736,9.071,23.2798,9.33406,23.4168,9.44893,23.415,9.27087
23.6974,9.22735,23.7641,9.16156,23.5948,9.39783,23.5098,8.77798,23.7516,8.98237,23.6209,8.94483,23.687,9.07552,23.5922,9.34105,23.7304,9.45532,23.7281,9.27584
24.0109,9.23435,24.0778,9.16943,23.9068,9.4032,23.8229,8.78598,24.0653,8.99179,23.9337,8.9523,24.0003,9.08182,23.9043,9.34703,24.0434,9.45971,24.0412,9.28245
24.3246,9.24269,24.392,9.17629,24.2182,9.40975,24.1365,8.79288,24.3795,9.00101,24.2463,8.95774,24.3138,9.09064,24.2166,9.35284,24.3564,9.46861,24.354,9.28855
24.6383,9.24981,24.7056,9.18409,24.5299,9.4169,24.4494,8.80108,24.6931,9.01031,24.5594,8.96431,24.627,9.1013,24.529,9.35943,24.6699,9.47408,24.6675,9.29778
24.9518,9.25723,25.02,9.19251,24.8415,9.42398,24.7632,8.81082,25.0074,9.01898,24.8717,8.97273,24.9406,9.10791,24.841,9.36406,24.9828,9.48111,24.9801,9.30471
25.2656,9.26401,25.3337,9.20155,25.153,9.43276,25.0762,8.81748,25.3212,9.02767,25.1847,8.98124,25.2539,9.1146,25.1536,9.37185,25.2962,9.48781,25.2932,9.31175
25.5793,9.2727,25.6475,9.20886,25.4649,9.44222,25.3893,8.82618,25.635,9.03643,25.4973,8.98951,25.5671,9.12074,25.4657,9.38142,25.6094,9.49598,25.6063,9.32086
25.8927,9.28061,25.9616,9.21726,25.7762,9.45032,25.7029,8.83466,25.9491,9.0453,25.81,8.99807,25.8807,9.13078,25.7781,9.38776,25.9226,9.50428,25.9192,9.32984
26.2067,9.28951,26.2756,9.22583,26.088,9.45722,26.0161,8.84253,26.2631,9.05548,26.1229,9.00548,26.1939,9.14273,26.0901,9.39424,26.2359,9.5114,26.2323,9.33654
26.5202,9.29705,26.5894,9.23523,26.3997,9.46609,26.3293,8.85187,26.5768,9.06607,26.4353,9.01436,26.5073,9.14945,26.4025,9.40417,26.5489,9.52139,26.5451,9.34477
26.8338,9.30619,26.9034,9.2435,26.7113,9.47419,26.6427,8.86149,26.8909,9.07679,26.7483,9.02319,26.8209,9.15653,26.715,9.41198,26.8621,9.52908,26.8584,9.35376
27.1477,9.31493,27.2172,9.25164,27.023,9.48167,26.9558,8.87061,27.2046,9.08576,27.0609,9.03061,27.134,9.16452,27.0269,9.41916,27.1755,9.53804,27.1713,9.36158
27.4611,9.32248,27.5313,9.26129,27.3346,9.49128,27.2692,8.88114,27.5186,9.0948,27.3737,9.03947,27.4477,9.17312,27.3393,9.42725,27.4884,9.54291,27.4843,9.37094
27.775,9.33052,27.8452,9.26914,27.6462,9.50014,27.5825,8.88823,27.8326,9.10338,27.6865,9.04861,27.7607,9.18261,27.6516,9.43476,27.8018,9.55133,27.7973,9.37935
28.0885,9.33727,28.159,9.27724,27.958,9.50901,27.8957,8.89659,28.1463,9.11295,27.9991,9.05678,28.0742,9.1944,27.9638,9.44299,28.115,9.56027,28.1104,9.38863
28.4023,9.34663,28.4733,9.28635,28.2693,9.51826,28.2093,8.90591,28.4607,9.12265,28.3119,9.06502,28.3877,9.20221,28.2762,9.45192,28.4281,9.56852,28.4233,9.39491
28.716,9.355,28.7869,9.29386,28.5812,9.52736,28.5223,8.91223,28.7742,9.13197,28.6247,9.07422,28.7009,9.20633,28.5882,9.46008,28.7414,9.5793,28.7366,9.40277
29.0295,9.3632,29.1011,9.30373,28.8927,9.53575,28.8359,8.92219,29.0883,9.14206,28.9372,9.08241,29.0144,9.2149,28.9008,9.4691,29.0544,9.58598,29.0493,9.41191
29.3432,9.37172,29.4149,9.3143,29.2044,9.54485,29.149,8.93218,29.4022,9.14975,29.2502,9.09173,29.3278,9.22624,29.2131,9.47721,29.3679,9.59482,29.3626,9.42152
29.6568,9.38074,29.7289,9.32334,29.5162,9.55419,29.4623,8.94113,29.7161,9.15979,29.5628,9.09992,29.6412,9.23599,29.5249,9.48432,29.6808,9.60386,29.6754,9.42909
29.9705,9.38859,30.0429,9.33123,29.8276,9.56456,29.7757,8.95043,30.0301,9.16854,29.8754,9.10969,29.9545,9.24365,29.8377,9.49304,29.9941,9.61114,29.9884,9.43875
30.2841,9.39647,30.3566,9.33923,30.1394,9.57403,30.0887,8.95962,30.3439,9.1769,30.1884,9.11941,30.2679,9.25304,30.1498,9.50195,30.3073,9.61878,30.3017,9.44931
30.598,9.40528,30.6707,9.34805,30.4508,9.58237,30.4023,8.96805,30.6579,9.18629,30.5008,9.12824,30.5813,9.25988,30.462,9.51091,30.6204,9.6277,30.6143,9.45582
30.9115,9.41345,30.9846,9.35729,30.7625,9.59153,30.7154,8.97655,30.9719,9.19667,30.8139,9.13637,30.8947,9.26881,30.7744,9.51937,30.9337,9.63712,30.9276,9.4637
31.2252,9.42251,31.2986,9.36574,31.0743,9.59991,31.0288,8.98421,31.2858,9.20494,31.1263,9.14578,31.2079,9.27782,31.0864,9.52917,31.2468,9.64558,31.2405,9.47411
31.5388,9.43183,31.6125,9.37469,31.3858,9.60812,31.3421,8.99483,31.5997,9.21446,31.4393,9.15473,31.5215,9.289,31.3989,9.53666,31.5602,9.65383,31.5536,9.48172
31.8527,9.44023,31.9265,9.383,31.6974,9.61607,31.6553,9.00434,31.9137,9.2247,31.752,9.16289,31.8346,9.29609,31.711,9.54527,31.8733,9.66411,31.8667,9.488
32.166,9.44733,32.2404,9.39169,32.0092,9.62621,31.9687,9.01335,32.2275,9.23095,32.0646,9.17113,32.1482,9.30322,32.0233,9.55336,32.1863,9.66921,32.1796,9.49809
32.4799,9.45573,32.5545,9.4,32.3207,9.63368,32.282,9.02063,32.5416,9.23886,32.3774,9.1792,32.4614,9.31286,32.3358,9.56093,32.4997,9.67618,32.4926,9.50523
32.7935,9.46323,32.8681,9.4079,32.6323,9.64201,32.595,9.02886,32.8552,9.24651,32.6901,9.18834,32.7749,9.32222,32.6479,9.56871,32.813,9.68506,32.8057,9.51186
33.107,9.47069,33.1825,9.41629,32.9439,9.65131,32.9087,9.0371,33.1695,9.25462,33.0028,9.19581,33.0884,9.32836,32.9601,9.57689,33.1259,9.69331,33.1186,9.51929
33.4209,9.47819,33.4961,9.42249,33.2557,9.6572,33.2217,9.04398,33.4832,9.26364,33.3155,9.20392,33.4013,9.33659,33.2725,9.58546,33.4393,9.70105,33.4316,9.5278
33.7342,9.48545,33.8101,9.43053,33.5673,9.66406,33.5352,9.05284,33.7972,9.27204,33.6283,9.21171,33.7152,9.34277,33.5847,9.59143,33.7522,9.70653,33.7448,9.533
34.0483,9.49274,34.1241,9.43889,33.8788,9.67139,33.8484,9.06098,34.1112,9.2781,33.941,9.21871,34.0285,9.3495,33.8971,9.59779,34.0657,9.7143,34.0577,9.54069
34.3618,9.49867,34.4379,9.44566,34.1906,9.67732,34.1616,9.06806,34.4249,9.28606,34.2536,9.22489,34.3417,9.35793,34.2091,9.60475,34.3787,9.71916,34.3707,9.54802
34.6753,9.50513,34.752,9.45181,34.502,9.68566,34.475,9.07526,34.739,9.29337,34.5664,9.23395,34.6551,9.36548,34.5216,9.61024,34.6919,9.72665,34.6837,9.55548
34.9892,9.51144,35.0658,9.45834,34.8138,9.69357,34.7881,9.08207,35.0529,9.30066,34.8794,9.24158,34.9684,9.37224,34.8338,9.61551,35.0053,9.73335,34.997,9.5606
35.3029,9.51634,35.3799,9.46459,35.1253,9.69938,35.1017,9.08834,35.3668,9.30685,35.1917,9.24731,35.2818,9.3782,35.146,9.6231,35.3183,9.73881,35.3096,9.56668
35.6163,9.52225,35.6938,9.47138,35.4372,9.70612,35.4149,9.09579,35.6809,9.31399,35.5048,9.25434,35.5953,9.38311,35.4584,9.62979,35.6315,9.74819,35.6229,9.57262
35.9302,9.52976,36.0077,9.47791,35.7487,9.71134,35.7281,9.10153,35.9946,9.32101,35.8172,9.26072,35.9084,9.38933,35.7705,9.63524,35.9448,9.75119,35.9357,9.57732
36.2436,9.53493,36.3216,9.48424,36.0602,9.7176,36.0414,9.10749,36.3086,9.32836,36.13,9.2662,36.2223,9.3981,36.0829,9.64093,36.2579,9.75637,36.2487,9.5834
36.5575,9.5405,36.6355,9.49111,36.372,9.72312,36.3547,9.11637,36.6226,9.33424,36.4429,9.27244,36.5353,9.40296,36.3951,9.64622,36.5712,9.76829,36.5619,9.59051
36.871,9.54647,36.9495,9.49616,36.6837,9.72954,36.668,9.12145,36.9364,9.33939,36.7554,9.27903,36.8487,9.40898,36.7073,9.65035,36.8842,9.77085,36.8747,9.59651
37.1846,9.55138,37.2635,9.50184,36.9951,9.73487,36.9813,9.12673,37.2505,9.34487,37.0685,9.28553,37.1622,9.41508,37.0198,9.65498,37.1975,9.7709,37.188,9.59998
37.4986,9.55479,37.5775,9.50681,37.3069,9.74117,37.2946,9.13235,37.5644,9.34845,37.381,9.29137,37.4754,9.41945,37.332,9.66041,37.5108,9.77848,37.5009,9.60664
37.8119,9.55972,37.8915,9.51208,37.6184,9.74449,37.608,9.13821,37.8784,9.35525,37.6936,9.29631,37.789,9.42429,37.6441,9.66369,37.8238,9.78567,37.8137,9.61058
38.1258,9.56339,38.2052,9.5166,37.93,9.75039,37.9211,9.14234,38.1921,9.36144,38.0065,9.30166,38.1021,9.43072,37.9567,9.66925,38.1372,9.78879,38.127,9.61372
38.4393,9.56818,38.5192,9.52241,38.2419,9.75522,38.2345,9.14965,38.5061,9.36748,38.3191,9.30501,38.4157,9.43428,38.2686,9.67295,38.4502,9.79254,38.44,9.61776
38.7531,9.57274,38.8334,9.52735,38.5532,9.7587,38.5479,9.1552,38.8202,9.37163,38.6318,9.31064,38.729,9.43619,38.5812,9.67791,38.7636,9.79792,38.7528,9.62323
39.0667,9.57623,39.1469,9.53211,38.8653,9.76497,38.8608,9.15934,39.1338,9.37635,38.9447,9.31673,39.0424,9.44312,38.8933,9.68208,39.0767,9.80059,39.0661,9.62838
39.3802,9.58202,39.4611,9.53796,39.1766,9.77171,39.1745,9.16426,39.4479,9.38103,39.2572,9.3218,39.3557,9.4482,39.2056,9.6855,39.3898,9.80197,39.3787,9.63119
39.694,9.58555,39.7748,9.54143,39.4882,9.77585,39.4875,9.17006,39.7618,9.38608,39.5702,9.32688,39.6691,9.45267,39.518,9.68892,39.7033,9.80939,39.6921,9.637
40.0077,9.58947,40.0889,9.54636,39.8,9.77905,39.8009,9.17475,40.0757,9.39163,39.8826,9.33161,39.9825,9.45761,39.83,9.69328,40.0162,9.816,40.0049,9.64043
40.3213,9.59345,40.4029,9.55051,40.1115,9.7838,40.1142,9.1783,40.3897,9.39558,40.1955,9.33691,40.2959,9.46094,40.1425,9.69777,40.3295,9.81629,40.318,9.64319
40.6351,9.59818,40.7167,9.55498,40.4232,9.78772,40.4274,9.18278,40.7035,9.39979,40.5084,9.34054,40.6091,9.46283,40.4546,9.70247,40.6428,9.81966,40.6312,9.64694
40.9487,9.60095,41.0309,9.55985,40.7348,9.79128,40.741,9.188,41.0177,9.40447,40.8209,9.34346,40.9227,9.46864,40.7669,9.70415,40.9558,9.82721,40.9439,9.65046
41.2624,9.60507,41.3447,9.56539,41.0464,9.79388,41.0541,9.19313,41.3315,9.41093,41.1338,9.3485,41.236,9.47293,41.0791,9.70733,41.269,9.83001,41.2571,9.65297
41.576,9.60934,41.6584,9.56792,41.3581,9.79906,41.3672,9.19717,41.6451,9.416,41.4464,9.35263,41.5493,9.47564,41.3916,9.71029,41.5823,9.82982,41.5701,9.65742
41.8895,9.61109,41.9727,9.57125,41.6696,9.80217,41.6808,9.20162,41.9594,9.41771,41.7592,9.35497,41.8629,9.47885,41.7038,9.71202,41.8954,9.83376,41.8831,9.6606
42.2035,9.61223,42.2865,9.57317,41.9813,9.8046,41.9939,9.20291,42.2732,9.41894,42.0719,9.35767,42.1759,9.48085,42.016,9.71272,42.2088,9.83659,42.1961,9.66222
42.5169,9.61499,42.6004,9.57599,42.2931,9.8069,42.3072,9.20506,42.5871,9.42459,42.3845,9.36207,42.4895,9.48254,42.3283,9.71696,42.5217,9.83616,42.509,9.66325
42.8307,9.61644,42.9144,9.57934,42.6045,9.80891,42.6205,9.20801,42.9011,9.4291,42.6974,9.36366,42.8028,9.48399,42.6408,9.71942,42.8351,9.83988,42.8222,9.66606
43.1444,9.61974,43.2282,9.58164,42.9164,9.8108,42.9337,9.21128,43.2148,9.43287,43.01,9.36446,43.1163,9.48645,42.9527,9.72046,43.1481,9.84368,43.1351,9.66919
43.4579,9.62353,43.5423,9.58475,43.2277,9.81167,43.2472,9.21518,43.529,9.43703,43.3227,9.36811,43.4297,9.48999,43.2651,9.72181,43.4614,9.84268,43.4481,9.67019
43.7716,9.62386,43.8561,9.58688,43.5397,9.81578,43.5603,9.21739,43.8427,9.43919,43.6357,9.37087,43.743,9.49095,43.5773,9.72246,43.7746,9.8427,43.7613,9.67256
44.0853,9.62501,44.1701,9.58875,43.8511,9.81754,43.8737,9.21934,44.1567,9.43969,43.9481,9.37016,44.0564,9.49271,43.8894,9.72379,44.0878,9.84494,44.0741,9.67502
44.399,9.62546,44.4841,9.58911,44.1627,9.81785,44.187,9.22014,44.4708,9.44349,44.2611,9.37442,44.3698,9.49603,44.2021,9.72346,44.4011,9.84629,44.3873,9.67674
44.7127,9.62779,44.798,9.59174,44.4745,9.82041,44.5003,9.22212,44.7846,9.44759,44.5736,9.37678,44.6831,9.4964,44.5139,9.72612,44.7141,9.84638,44.7002,9.67681
45.0262,9.62779,45.112,9.59229,44.7859,9.82253,44.8136,9.22362,45.0985,9.44845,44.8864,9.37716,44.9964,9.4968,44.8267,9.72806,45.0274,9.84723,45.0132,9.67815
45.3399,9.62926,45.4259,9.59401,45.0978,9.82231,45.1268,9.2253,45.4126,9.45187,45.1993,9.37701,45.31,9.49768,45.1387,9.72794,45.3407,9.84755,45.3264,9.67976
45.6536,9.63012,45.7399,9.59603,45.4093,9.82248,45.4402,9.2269,45.7264,9.45379,45.5117,9.37835,45.6233,9.49876,45.4509,9.72774,45.6536,9.8471,45.6392,9.68009
45.9672,9.63177,46.0538,9.59616,45.721,9.82432,45.7535,9.22886,46.0404,9.45554,45.8247,9.37965,45.9367,9.49931,45.7634,9.72879,45.9669,9.84803,45.9523,9.68008
46.2809,9.63258,46.3676,9.59784,46.0327,9.8255,46.0666,9.22989,46.3541,9.45684,46.1374,9.38104,46.2499,9.50198,46.0756,9.73002,46.2802,9.84915,46.2654,9.68267
46.5946,9.63046,46.6817,9.59896,46.3442,9.82639,46.3801,9.23155,46.6682,9.45975,46.4501,9.38201,46.5636,9.50519,46.3878,9.72962,46.5932,9.84891,46.5783,9.68358
46.9085,9.63199,46.9956,9.59779,46.6558,9.82781,46.6933,9.23254,46.9822,9.46054,46.7627,9.38365,46.8766,9.50331,46.7001,9.73029,46.9067,9.84738,46.8913,9.68264
47.2217,9.63191,47.3095,9.59836,46.9677,9.82957,47.0065,9.23287,47.2959,9.46161,47.0756,9.38439,47.1902,9.50359,47.0123,9.73131,47.2195,9.84813,47.2044,9.68224
47.5357,9.63144,47.6237,9.60062,47.279,9.8269,47.3201,9.23376,47.6101,9.46346,47.3883,9.38487,47.5035,9.50589,47.3246,9.73274,47.5331,9.84941,47.5174,9.68279
47.8494,9.63267,47.9373,9.60138,47.5908,9.82612,47.633,9.2354,47.9238,9.46612,47.701,9.38595,47.8168,9.50771,47.6368,9.7325,47.8462,9.84809,47.8306,9.6825
48.1628,9.633,48.2516,9.60168,47.9024,9.82809,47.9467,9.23706,48.238,9.46752,48.0136,9.38574,48.1304,9.50769,47.949,9.73195,48.1591,9.84761,48.1433,9.68261
48.4767,9.63176,48.5652,9.60194,48.2141,9.82769,48.2597,9.2367,48.5517,9.4678,48.3266,9.38594,48.4434,9.50887,48.2616,9.73188,48.4727,9.84744,48.4566,9.68412
48.7901,9.63163,48.8793,9.60189,48.5257,9.82664,48.5731,9.23695,48.8656,9.46952,48.6391,9.3875,48.7572,9.50998,48.5735,9.73065,48.7857,9.8451,48.7694,9.6837
49.1038,9.63113,49.1933,9.60084,48.8372,9.82836,48.8864,9.23751,49.1797,9.46984,48.9519,9.3894,49.0704,9.51089,48.8861,9.73042,49.0989,9.84407,49.0825,9.68318
49.4175,9.6293,49.5071,9.60133,49.1491,9.82806,49.1996,9.23604,49.4936,9.46989,49.2645,9.38902,49.3836,9.51002,49.1981,9.72959,49.4121,9.84562,49.3954,9.6828
49.7311,9.62929,49.8211,9.59932,49.4604,9.82528,49.5129,9.23577,49.8074,9.47163,49.5774,9.38819,49.6972,9.51013,49.5106,9.7302,49.7252,9.84448,49.7085,9.6813
50.045,9.62872,50.1351,9.60035,49.7722,9.82397,49.8263,9.23647,50.1215,9.473,49.8902,9.38765,50.0106,9.51033,49.8228,9.72865,50.0384,9.84303,50.0216,9.67896
50.3586,9.62791,50.4489,9.60011,50.0838,9.8241,50.1395,9.23711,50.4352,9.47326,50.2026,9.38594,50.3238,9.50897,50.1349,9.72712,50.3517,9.84178,50.3344,9.67832
50.672,9.6265,50.7629,9.59933,50.3954,9.82239,50.4528,9.23534,50.7493,9.47286,50.5157,9.38698,50.6374,9.5093,50.4473,9.72626,50.6647,9.83932,50.6476,9.67734
50.986,9.62502,51.0768,9.59925,50.7071,9.82077,50.766,9.23551,51.0631,9.47382,50.8284,9.386,50.9504,9.50923,50.7594,9.72504,50.9783,9.8384,50.9607,9.67604
51.2994,9.62312,51.3909,9.59786,51.0186,9.82102,51.0795,9.23573,51.3771,9.47425,51.1409,9.38677,51.2641,9.50939,51.0718,9.72284,51.2911,9.83494,51.2735,9.67593
51.6133,9.6206,51.7048,9.59633,51.3305,9.81876,51.3927,9.23295,51.6912,9.4746,51.4537,9.38526,51.5773,9.50723,51.3842,9.7218,51.6045,9.83362,51.5866,9.6739
51.9268,9.61773,52.0186,9.59545,51.6421,9.81717,51.7059,9.23127,52.0048,9.47374,51.7663,9.38317,51.8907,9.50607,51.6963,9.72031,51.9176,9.83263,51.8996,9.67165
52.2404,9.61651,52.3328,9.59414,51.9534,9.81519,52.0194,9.23043,52.319,9.47416,52.0791,9.38086,52.2043,9.50567,52.0087,9.71786,52.2308,9.83082,52.2125,9.66826
52.5542,9.61492,52.6464,9.59221,52.2654,9.81373,52.3324,9.22878,52.6327,9.47561,52.392,9.38138,52.5174,9.504,52.3209,9.71799,52.5441,9.82725,52.5258,9.66727
52.8677,9.6127,52.9606,9.59225,52.577,9.81133,52.646,9.22716,52.9468,9.47666,52.7044,9.3789,52.8309,9.50247,52.633,9.71582,52.857,9.8259,52.8385,9.66434
53.1815,9.60931,53.2743,9.59013,52.8884,9.8095,52.959,9.22601,53.2606,9.47488,53.0175,9.37634,53.1442,9.50213,52.9457,9.71319,53.1705,9.82201,53.1518,9.66243
53.4951,9.60652,53.5885,9.58809,53.2003,9.80894,53.2726,9.22438,53.5747,9.4753,53.33,9.37472,53.4577,9.50035,53.2576,9.70934,53.4835,9.8179,53.4647,9.6616
53.8088,9.60203,53.9024,9.5854,53.5116,9.80924,53.5858,9.22138,53.8886,9.4752,53.6426,9.37506,53.7711,9.49778,53.5701,9.70791,53.7968,9.81606,53.7774,9.6594
54.1224,9.5994,54.216,9.58419,53.8235,9.8067,53.8987,9.2203,54.2022,9.47414,53.9557,9.37392,54.0843,9.4966,53.8823,9.70645,54.11,9.81307,54.0909,9.65501
54.4361,9.59728,54.5303,9.58198,54.135,9.80373,54.2124,9.21746,54.5164,9.4741,54.2681,9.37104,54.3978,9.49343,54.1945,9.70445,54.4232,9.81023,54.4037,9.65265
54.7498,9.59393,54.8442,9.57966,54.4466,9.80232,54.5256,9.21618,54.8304,9.47426,54.5811,9.3693,54.7111,9.49179,54.5069,9.70101,54.7364,9.80871,54.7168,9.65117
55.0636,9.59233,55.158,9.57789,54.7585,9.79897,54.8389,9.21422,55.1441,9.47281,54.8936,9.36716,55.0244,9.48991,54.819,9.6984,55.0496,9.80529,55.0298,9.64687
55.377,9.58873,55.4721,9.57613,55.0699,9.79775,55.1522,9.21306,55.4581,9.47272,55.2065,9.36473,55.338,9.48778,55.1315,9.69529,55.3627,9.80127,55.3428,9.64444
55.6909,9.5846,55.7859,9.57375,55.3816,9.79624,55.4654,9.21012,55.7721,9.47115,55.5192,9.36239,55.6512,9.48486,55.4436,9.69188,55.6761,9.79825,55.6558,9.64274
56.0043,9.58145,56.0998,9.56993,55.6933,9.79491,55.7787,9.20668,56.0859,9.46936,55.8318,9.36204,55.9647,9.48279,55.7559,9.68968,55.9891,9.79433,55.9688,9.64019
56.3181,9.57656,56.414,9.56722,56.0048,9.79313,56.0921,9.20382,56.4001,9.46889,56.1446,9.35956,56.2781,9.47971,56.0682,9.68727,56.3023,9.79171,56.2817,9.63566
56.6319,9.57232,56.7276,9.56469,56.3166,9.79148,56.4052,9.20191,56.7136,9.46729,56.4574,9.35695,56.5912,9.47823,56.3803,9.68497,56.6157,9.78944,56.595,9.63328
56.9454,9.56922,57.042,9.56133,56.628,9.78806,56.7189,9.19942,57.028,9.46726,56.77,9.35467,56.9049,9.47542,56.6927,9.68187,56.9286,9.78618,56.9078,9.62936
57.2592,9.56753,57.3556,9.55931,56.9398,9.78422,57.0318,9.19738,57.3416,9.46658,57.0829,9.35185,57.218,9.47203,57.005,9.68074,57.242,9.78226,57.221,9.62527
57.5727,9.56363,57.6696,9.55679,57.2514,9.78153,57.3452,9.19598,57.6556,9.46592,57.3954,9.34759,57.5316,9.46934,57.3173,9.67506,57.555,9.77788,57.5338,9.62174
57.8864,9.55984,57.9836,9.55258,57.5629,9.78127,57.6585,9.19266,57.9697,9.46364,57.7083,9.34597,57.8449,9.46827,57.6297,9.67185,57.8685,9.77321,57.8469,9.61908
58.2001,9.55378,58.2974,9.54897,57.8748,9.7776,57.9718,9.18859,58.2835,9.46135,58.0211,9.34527,58.1582,9.46592,57.9415,9.66715,58.1815,9.76881,58.1601,9.61441
58.5137,9.54945,58.6114,9.54497,58.1862,9.77418,58.2851,9.18554,58.5974,9.45937,58.3336,9.34132,58.4717,9.46208,58.2542,9.6642,58.4947,9.76538,58.4728,9.61023
58.8274,9.54489,58.9252,9.54048,58.498,9.77115,58.5982,9.1831,58.9113,9.45813,58.6466,9.33809,58.785,9.45829,58.5665,9.65989,58.8079,9.75902,58.7861,9.60695
59.1412,9.53999,59.2393,9.53708,58.8095,9.7677,58.9117,9.17902,59.2252,9.45645,58.959,9.33545,59.0984,9.45354,58.8783,9.6556,59.121,9.75679,59.0989,9.6026
59.4547,9.53545,59.5533,9.53426,59.1211,9.76452,59.2249,9.17524,59.5392,9.45491,59.272,9.33132,59.412,9.45056,59.191,9.6528,59.4343,9.75385,59.4121,9.59705
59.7685,9.53231,59.8672,9.53111,59.4329,9.7607,59.5383,9.17323,59.8531,9.45258,59.5846,9.32559,59.725,9.4465,59.5029,9.64938,59.7474,9.74802,59.725,9.59267
60.0819,9.52658,60.181,9.52501,59.7444,9.75626,59.8515,9.16958,60.1669,9.44963,59.8974,9.32411,60.0386,9.44413,59.8154,9.64281,60.0607,9.74167,60.038,9.58994
60.3958,9.52182,60.4951,9.52242,60.056,9.75415,60.1649,9.16661,60.4811,9.44837,60.2102,9.32074,60.3518,9.43978,60.1277,9.63791,60.3739,9.73801,60.3511,9.58553
60.7094,9.51684,60.8089,9.51709,60.3678,9.75061,60.4781,9.16204,60.7948,9.44481,60.5226,9.31686,60.6652,9.43559,60.4398,9.63679,60.6869,9.73262,60.664,9.58005
61.0229,9.51135,61.123,9.51203,60.6793,9.74572,60.7915,9.15857,61.1089,9.44341,60.8356,9.31267,60.9786,9.43086,60.7524,9.62954,61.0003,9.72648,60.977,9.57508
61.3368,9.50529,61.4368,9.5056,60.991,9.74232,61.1046,9.15457,61.4227,9.44092,61.1483,9.31007,61.292,9.42843,61.0645,9.62455,61.3137,9.7224,61.2902,9.57181
61.6502,9.50037,61.751,9.50174,61.3027,9.73797,61.4181,9.15076,61.7368,9.43817,61.461,9.30384,61.6055,9.42193,61.3766,9.62128,61.6264,9.71649,61.6031,9.56487
61.9642,9.49667,62.0648,9.49773,61.6142,9.73297,61.7314,9.14711,62.0507,9.43545,61.7737,9.29941,61.9187,9.41751,61.6892,9.61665,61.94,9.71037,61.9161,9.5587
62.2775,9.49055,62.3786,9.49275,61.926,9.72906,62.0445,9.14325,62.3644,9.43349,62.0865,9.29601,62.2322,9.41436,62.0012,9.60853,62.2528,9.70477,62.2293,9.55645
62.5915,9.4854,62.6928,9.48766,62.2374,9.72409,62.358,9.13771,62.6786,9.42934,62.3992,9.29099,62.5457,9.40986,62.3136,9.60559,62.5662,9.69834,62.542,9.55147
62.9051,9.48017,63.0064,9.48207,62.5492,9.72105,62.6709,9.1347,62.9922,9.42595,62.712,9.28643,62.8588,9.4047,62.6258,9.60094,62.8795,9.69075,62.8553,9.54627
63.2185,9.47477,63.3206,9.47584,62.8607,9.71765,62.9846,9.1304,63.3064,9.42185,63.0245,9.28163,63.1723,9.39997,62.938,9.59343,63.1924,9.68723,63.1681,9.5396
63.5324,9.46773,63.6345,9.47022,63.1724,9.71339,63.2977,9.12492,63.6203,9.41871,63.3376,9.27671,63.4855,9.39454,63.2504,9.58832,63.506,9.68157,63.4814,9.53591
63.8461,9.46232,63.9485,9.46532,63.484,9.70785,63.6111,9.12012,63.9342,9.41643,63.65,9.27078,63.7989,9.38883,63.5625,9.58432,63.8189,9.67577,63.7942,9.52888
64.1596,9.45782,64.2625,9.45878,63.7958,9.70233,63.9245,9.11446,64.2482,9.4138,63.9628,9.26449,64.1124,9.38438,63.8749,9.57756,64.1321,9.66836,64.1072,9.52346
64.4734,9.45307,64.5763,9.454,64.1074,9.69813,64.2376,9.11046,64.562,9.40905,64.2756,9.25849,64.4256,9.378,64.1871,9.57194,64.4455,9.66237,64.4203,9.51805
64.7868,9.44707,64.8902,9.44774,64.4189,9.69476,64.5509,9.10711,64.8758,9.40511,64.5881,9.25445,64.7393,9.37433,64.4994,9.56532,64.7586,9.65576,64.7332,9.51368
65.1006,9.44248,65.2043,9.44252,64.7306,9.69156,64.8643,9.10219,65.1901,9.40221,64.9011,9.24848,65.0525,9.3689,64.8117,9.5579,65.0718,9.6488,65.0463,9.50784
65.4144,9.43624,65.518,9.43512,65.0423,9.68604,65.1774,9.09647,65.5037,9.397,65.2135,9.24292,65.3657,9.36366,65.1239,9.55339,65.385,9.64269,65.3592,9.50348
65.7278,9.42977,65.8321,9.4306,65.3538,9.6799,65.4908,9.09171,65.8178,9.39319,65.5267,9.23814,65.6795,9.35883,65.4363,9.54937,65.6981,9.63721,65.6725,9.49828
66.0419,9.42617,66.1461,9.42381,65.6655,9.67597,65.8042,9.08719,66.1317,9.38978,65.8393,9.23213,65.9925,9.35251,65.7486,9.54337,66.0114,9.63069,65.9854,9.4908
66.3551,9.42021,66.46,9.41799,65.9771,9.67035,66.1174,9.0831,66.4456,9.38637,66.1517,9.2256,66.3061,9.3459,66.0607,9.53572,66.3244,9.62519,66.2982,9.48411
66.669,9.41504,66.7739,9.41293,66.2886,9.66506,66.4307,9.07805,66.7596,9.38115,66.4647,9.21901,66.6193,9.34105,66.3732,9.52969,66.6377,9.61789,66.6114,9.47987
66.9826,9.40975,67.0878,9.40652,66.6005,9.65978,66.7439,9.07319,67.0733,9.37664,66.7775,9.21107,66.9327,9.33599,66.6852,9.5231,66.9509,9.60996,66.9246,9.47345
67.2963,9.40325,67.402,9.39977,66.9118,9.65237,67.0575,9.06805,67.3875,9.37191,67.0899,9.20554,67.2461,9.32881,66.9975,9.51594,67.2641,9.60324,67.2372,9.4653
67.61,9.39639,67.7156,9.39256,67.2239,9.64852,67.3703,9.06317,67.7012,9.36769,67.4029,9.2012,67.5594,9.32445,67.31,9.50842,67.5773,9.59599,67.5506,9.46017
67.9234,9.39064,68.0297,9.38611,67.5353,9.64356,67.6839,9.05755,68.0152,9.3631,67.7153,9.1934,67.8728,9.31759,67.622,9.50209,67.8903,9.58874,67.8632,9.45229
68.2373,9.38397,68.3436,9.37834,67.8467,9.63735,67.9971,9.05073,68.3292,9.35779,68.0283,9.18629,68.1863,9.3097,67.9346,9.49505,68.2038,9.5818,68.1765,9.44475
68.5509,9.37825,68.6575,9.37185,68.1587,9.62998,68.3104,9.04692,68.643,9.35321,68.341,9.17883,68.4996,9.30246,68.2465,9.48687,68.5169,9.57374,68.4895,9.43676
68.8645,9.37301,68.9715,9.36559,68.4701,9.62267,68.6238,9.03902,68.957,9.34968,68.6535,9.17152,68.8131,9.29609,68.559,9.48143,68.83,9.566,68.8023,9.42873
69.1782,9.36677,69.2853,9.35856,68.7818,9.61626,68.9369,9.03319,69.2709,9.34456,68.9667,9.16308,69.1264,9.28876,68.8712,9.47417,69.1433,9.55893,69.1157,9.41897
69.492,9.35963,69.5995,9.34948,69.0934,9.61134,69.2505,9.02883,69.585,9.33797,69.279,9.15479,69.4398,9.28138,69.1834,9.46478,69.4564,9.551,69.4284,9.41297
69.8055,9.35323,69.9133,9.34369,69.405,9.60409,69.5635,9.02215,69.8988,9.33276,69.592,9.14873,69.7533,9.27455,69.4957,9.45711,69.7696,9.53893,69.7416,9.40374
70.1194,9.3457,70.2271,9.33541,69.7167,9.59731,69.8767,9.01386,70.2126,9.32718,69.9046,9.14078,70.0663,9.26495,69.8081,9.45017,70.083,9.53134,70.0546,9.39345
70.4327,9.33688,70.5412,9.32669,70.0283,9.59038,70.1902,9.00762,70.5267,9.32122,70.2174,9.13092,70.3801,9.25705,70.1203,9.44138,70.396,9.52313,70.3676,9.38364
70.7467,9.33012,70.8552,9.31667,70.3398,9.58298,70.5035,9.00065,70.8407,9.31542,70.5301,9.12268,70.6931,9.24905,70.4326,9.43383,70.7095,9.5144,70.6806,9.37399
71.0602,9.32303,71.169,9.30976,70.6518,9.57606,70.8167,8.99376,71.1543,9.31136,70.8428,9.11521,71.0067,9.23971,70.7448,9.42558,71.0224,9.50367,70.9936,9.36391
71.3739,9.31676,71.4832,9.30259,70.9631,9.56778,71.1302,8.98839,71.4685,9.30617,71.1555,9.10338,71.3201,9.23112,71.0572,9.41835,71.3356,9.49485,71.3065,9.35207
71.6876,9.3089,71.7967,9.29431,71.275,9.55923,71.4431,8.98218,71.7821,9.29904,71.4683,9.09494,71.6333,9.22333,71.3694,9.40847,71.6489,9.48258,71.6197,9.34213
72.001,9.3011,72.1109,9.28725,71.5865,9.55161,71.7567,8.97454,72.0963,9.29371,71.7809,9.08782,71.9469,9.2147,71.6816,9.39976,71.9619,9.47122,71.9325,9.33084
72.3149,9.29199,72.4247,9.27677,71.8982,9.54542,72.0698,8.96668,72.4102,9.28735,72.0938,9.07714,72.2601,9.20656,71.994,9.38917,72.2752,9.46078,72.2457,9.31873
72.6285,9.28264,72.7387,9.26716,72.2099,9.53712,72.3832,8.95894,72.724,9.28058,72.4064,9.06839,72.5735,9.196,72.306,9.38172,72.5884,9.44999,72.5587,9.3055
72.9422,9.27388,73.0528,9.25953,72.5213,9.52985,72.6966,8.95195,73.0382,9.27564,72.7192,9.0626,72.887,9.18625,72.6186,9.37433,72.9017,9.43731,72.8717,9.2942
73.256,9.26568,73.3666,9.25148,72.8331,9.52128,73.0097,8.94354,73.352,9.2709,73.032,9.04844,73.2002,9.17731,72.9305,9.36513,73.2148,9.42573,73.1848,9.27985
73.5695,9.25732,73.6806,9.24101,73.1446,9.51316,73.3231,8.93525,73.6658,9.26406,73.3445,9.03678,73.5136,9.16608,73.2432,9.35753,73.528,9.41567,73.4976,9.2634
73.8832,9.24806,73.9946,9.23396,73.4562,9.50622,73.6364,8.92965,73.98,9.2586,73.6576,9.03061,73.8271,9.15873,73.5554,9.34923,73.8413,9.4,73.8109,9.25045
74.1969,9.23906,74.3084,9.22591,73.768,9.49789,73.9496,8.92067,74.2937,9.25115,73.97,9.02127,74.1403,9.14968,73.8671,9.34061,74.1544,9.3856,74.1237,9.23616
74.5103,9.22739,74.6225,9.21702,74.0795,9.48845,74.263,8.91184,74.6077,9.24436,74.2828,9.00833,74.4537,9.1386,74.1799,9.3305,74.4674,9.37333,74.4367,9.2174
74.8242,9.21725,74.9362,9.20683,74.3913,9.48015,74.576,8.90437,74.9215,9.23821,74.5956,8.99913,74.767,9.12801,74.4921,9.32119,74.7809,9.35489,74.7498,9.19847
75.1378,9.20562,75.2503,9.19679,74.7029,9.47235,74.8895,8.89563,75.2355,9.23282,74.9083,8.98992,75.0807,9.11907,74.8043,9.31121,75.0938,9.33491,75.0628,9.17746
75.4516,9.19538,75.5643,9.18836,75.0144,9.46223,75.2028,8.8857,75.5495,9.22433,75.221,8.976,75.3939,9.1076,75.1167,9.30266,75.4072,9.31324,75.3758,9.15056
75.7651,9.18473,75.8781,9.17817,75.3263,9.45166,75.516,8.87782,75.8633,9.218,75.5338,8.96564,75.7073,9.09611,75.42874,9.29189,75.7203,9.28591,75.689,9.12136
76.0788,9.17388,76.1922,9.16812,75.6376,9.44294,75.8296,8.8695,76.1774,9.21282,75.8465,8.95559,76.0208,9.08488,75.741,9.28098,76.0336,9.24231,76.0019,9.08047
76.3927,9.16182,76.506,9.15884,75.9493,9.43265,76.1426,8.85946,76.4912,9.20485,76.1593,8.94464,76.3339,9.07588,76.0535,9.26962,76.3468,9.17652,76.315,8.99888
76.7059,9.14852,76.8201,9.14914,76.2611,9.4232,76.4561,8.851,76.8052,9.19655,76.4718,8.93033,76.6475,9.06416,76.3655,9.25487,76.6597,9.02194,,
77.0199,9.13426,77.134,9.13707,76.5726,9.41455,76.7693,8.84104,77.1192,9.18758,76.7846,8.92061,76.9606,9.05215,76.6782,9.24133,,,,
77.3334,9.12064,77.4478,9.12694,76.8844,9.40505,77.0824,8.83104,77.4329,9.17944,77.0974,8.9085,77.2743,9.03988,76.9901,9.22758,,,,
77.647,9.10664,77.762,9.11638,77.1958,9.39312,77.396,8.82005,77.7471,9.17056,77.41,8.89435,77.5876,9.02807,77.3026,9.21047,,,,
77.9609,9.09229,78.0757,9.10474,77.5076,9.38052,77.7091,8.81013,78.0609,9.16298,77.7228,8.88064,77.9008,9.01513,77.6148,9.18805,,,,
78.2743,9.0788,78.3897,9.09412,77.8192,9.36976,78.0225,8.80076,78.3747,9.15527,78.0356,8.86813,78.2143,9.00139,77.9269,9.15054,,,,
78.5883,9.06389,78.7037,9.08525,78.1308,9.35946,78.3358,8.79032,78.6888,9.14645,78.3484,8.85405,78.5278,8.99038,78.2394,9.0723,,,,
78.9018,9.04841,79.0175,9.07231,78.4425,9.34676,78.6489,8.77912,79.0025,9.13566,78.6609,8.83933,78.8409,8.97674,78.5514,8.81116,,,,
79.2152,9.03201,79.3315,9.05927,78.754,9.33614,78.9623,8.76826,79.3165,9.12498,78.9738,8.82855,79.1545,8.96379,,,,,,
79.5292,9.01657,79.6455,9.0467,79.0657,9.32591,79.2756,8.75632,79.6306,9.11659,79.2866,8.81362,79.4676,8.95146,,,,,,
79.8428,8.99958,79.9594,9.03465,79.3773,9.31503,79.5889,8.74498,79.9444,9.10643,79.599,8.79872,79.7811,8.93819,,,,,,
80.1563,8.98324,80.2735,9.0226,79.6891,9.30205,79.9023,8.73545,80.2586,9.09683,79.912,8.78655,80.0946,8.92217,,,,,,
80.4702,8.96772,80.5872,9.00964,80.0007,9.28991,80.2154,8.72215,80.5722,9.08646,80.2245,8.7714,80.4077,8.90803,,,,,,
80.7835,8.95359,80.9012,8.99826,80.312,9.27711,80.5288,8.71072,80.8863,9.07509,80.5373,8.75426,80.7215,8.89605,,,,,,
81.0975,8.93671,81.2152,8.98581,80.6239,9.26526,80.842,8.70133,81.2002,9.06532,80.8502,8.74229,81.0345,8.88194,,,,,,
81.4109,8.92019,81.5291,8.97397,80.9358,9.25231,81.1553,8.68866,81.514,9.05603,81.1627,8.72914,81.3479,8.8671,,,,,,
81.7247,8.90558,81.843,8.96195,81.247,9.24083,81.4686,8.67407,81.828,9.0438,81.4757,8.71383,81.6614,8.85271,,,,,,
82.0385,8.88967,82.157,8.95136,81.559,9.22926,81.782,8.66297,82.1419,9.03159,81.7884,8.69999,81.9748,8.83882,,,,,,
82.352,8.87424,82.4711,8.93817,81.8702,9.21546,82.0954,8.65216,82.4559,9.02094,82.1008,8.68539,82.2881,8.82361,,,,,,
82.6658,8.86021,82.7848,8.92756,82.182,9.20421,82.4084,8.63919,82.7698,9.01067,82.414,8.66936,82.6015,8.81112,,,,,,
82.9794,8.84712,83.0989,8.91896,82.4937,9.19162,82.722,8.62704,83.0838,9.00046,82.7264,8.65276,82.9149,8.79715,,,,,,
83.293,8.83321,83.4129,8.90623,82.8052,9.17842,83.0352,8.61601,83.3978,8.98937,83.0392,8.64041,83.2283,8.78237,,,,,,
83.6068,8.81883,83.7266,8.89554,83.1171,9.16868,83.3483,8.60361,83.7115,8.97514,83.3519,8.62331,83.5415,8.77011,,,,,,
83.9202,8.803,84.0407,8.88473,83.4285,9.15866,83.6617,8.59073,84.0255,8.96213,83.6645,8.60437,83.855,8.75973,,,,,,
84.234,8.78891,84.3546,8.87256,83.7401,9.14597,83.975,8.58005,84.3395,8.95312,83.9774,8.58477,84.1685,8.74691,,,,,,
84.5477,8.76749,84.6684,8.861564,84.0519,9.13446,84.2881,8.56785,84.6532,8.94148,84.29,8.55721,84.4817,8.73313,,,,,,
84.8613,8.72704,84.9826,8.85459,84.3634,9.12392,84.6017,8.5568,84.9674,8.92961,84.6028,8.50351,84.7953,8.72073,,,,,,
85.1751,8.56473,85.2962,8.84389,84.6752,9.11236,84.9147,8.54633,85.281,8.91774,84.9156,8.38265,85.1083,8.70953,,,,,,
,,85.6105,8.83667,84.9867,9.10084,85.2283,8.53894,85.5953,8.90705,,,85.4221,8.69856,,,,,,
,,85.9243,8.83125,85.2983,9.09167,85.5414,8.52898,85.9091,8.89681,,,85.7352,8.68517,,,,,,
,,86.238,8.82359,85.6101,9.08332,85.8545,8.5189,86.2228,8.88438,,,86.0486,8.66697,,,,,,
,,86.5523,8.81602,85.9215,9.07335,86.1682,8.51052,86.537,8.86984,,,86.3621,8.62863,,,,,,
,,86.8661,8.81266,86.2333,9.06456,86.4812,8.50279,86.8509,8.85928,,,86.6753,8.52052,,,,,,
,,87.1801,8.80961,86.545,9.05813,86.7946,8.49511,87.1647,8.84889,,,,,,,,,,
,,87.4939,8.80539,86.8565,9.04999,87.1078,8.48808,87.4787,8.83717,,,,,,,,,,
,,87.8079,8.80349,87.1682,9.04241,87.4211,8.4815,87.7925,8.82553,,,,,,,,,,
,,88.1219,8.80372,87.4797,9.039,87.7345,8.4757,88.1065,8.81451,,,,,,,,,,
,,88.4358,8.80466,87.7915,9.03228,88.0477,8.46904,88.4205,8.80383,,,,,,,,,,
,,88.7496,8.80442,88.1031,9.02812,88.361,8.45732,88.7343,8.79144,,,,,,,,,,
,,89.0638,8.80561,88.4147,9.02399,88.6744,8.43225,89.0485,8.77918,,,,,,,,,,
,,89.3775,8.80887,88.7264,9.02065,88.9875,8.37553,89.3621,8.76803,,,,,,,,,,
,,89.6917,8.81163,89.0379,9.01586,89.301,8.16095,89.6762,8.75726,,,,,,,,,,
,,90.0055,8.81648,89.3496,9.01131,,,89.9901,8.74731,,,,,,,,,,
,,90.3194,8.8229,89.6614,9.00822,,,90.304,8.7367,,,,,,,,,,
,,90.6335,8.82721,89.9728,9.0031,,,90.6181,8.7214,,,,,,,,,,
,,90.9471,8.83142,90.2847,8.99513,,,90.9317,8.70176,,,,,,,,,,
,,91.2614,8.8396,90.596,8.98304,,,91.2459,8.67419,,,,,,,,,,
,,91.5751,8.84556,90.9078,8.96187,,,91.5597,8.60043,,,,,,,,,,
,,91.8892,8.84981,91.2194,8.91637,,,91.8737,8.24624,,,,,,,,,,
,,92.2031,8.85703,91.531,8.79554,,,,,,,,,,,,,,
,,92.517,8.86567,,,,,,,,,,,,,,,,
,,92.8311,8.87214,,,,,,,,,,,,,,,,
,,93.1449,8.8785,,,,,,,,,,,,,,,,
,,93.4588,8.88408,,,,,,,,,,,,,,,,
,,93.7729,8.89114,,,,,,,,,,,,,,,,
,,94.0867,8.8976,,,,,,,,,,,,,,,,
,,94.4006,8.90268,,,,,,,,,,,,,,,,
,,94.7148,8.90861,,,,,,,,,,,,,,,,
,,95.0285,8.91495,,,,,,,,,,,,,,,,
,,95.3425,8.92186,,,,,,,,,,,,,,,,
,,95.6563,8.92684,,,,,,,,,,,,,,,,
,,95.9705,8.93243,,,,,,,,,,,,,,,,
,,96.2843,8.93649,,,,,,,,,,,,,,,,
,,96.5983,8.942,,,,,,,,,,,,,,,,
,,96.9122,8.94692,,,,,,,,,,,,,,,,
,,97.2261,8.9514,,,,,,,,,,,,,,,,
,,97.5401,8.95676,,,,,,,,,,,,,,,,
,,97.8539,8.96191,,,,,,,,,,,,,,,,
,,98.1681,8.9635,,,,,,,,,,,,,,,,
,,98.4819,8.96653,,,,,,,,,,,,,,,,
,,98.7958,8.96869,,,,,,,,,,,,,,,,
,,99.1098,8.97154,,,,,,,,,,,,,,,,
,,99.424,8.97476,,,,,,,,,,,,,,,,
,,99.7375,8.97592,,,,,,,,,,,,,,,,
,,100.052,8.976,,,,,,,,,,,,,,,,
,,100.365,8.97585,,,,,,,,,,,,,,,,
,,100.679,8.97552,,,,,,,,,,,,,,,,
,,100.994,8.97182,,,,,,,,,,,,,,,,
,,101.307,8.96736,,,,,,,,,,,,,,,,
,,101.622,8.96153,,,,,,,,,,,,,,,,
,,101.935,8.95373,,,,,,,,,,,,,,,,
,,102.249,8.93803,,,,,,,,,,,,,,,,
,,102.563,8.91154,,,,,,,,,,,,,,,,
,,102.877,8.86164,,,,,,,,,,,,,,,,
,,103.191,8.69807,,,,,,,,,,,,,,,,
,,103.277,8.50831,,,,,,,,,,,,,,,,