File: Tensile LDPE/data/Tensile_testing_LDPE_MD_Data_MD_strain_percent_stress_MPa.csv
Strain1[%],Stress1[MPa],Strain2,Stress2,Strain3,Stress3,Strain4,Stress4,Strain5,Stress5,Strain6,Stress6,Strain7,Stress7,Strain8,Stress8,Strain9,Stress9,Strain10,Stress10
0,0.616721,0,0.599233,0,0.592412,0,0.587826,0,0.600018,0,0.606388,0,0.595773,0,0.60945,0,0.608053,0,0.605325
4.05241e-06,0.610958,-3.45732e-06,0.593941,-1.44062e-06,0.586655,2.0074e-06,0.601525,-1.11981e-06,0.593788,-9.02205e-07,0.601189,2.2577e-06,0.596227,3.05022e-06,0.603258,-3.07106e-06,0.602096,2.43899e-06,0.598425
1.75387e-06,0.604497,-3.83784e-06,0.587709,5.56604e-07,0.582434,-2.34561e-06,0.576866,1.88085e-06,0.589122,-7.17416e-07,0.594586,-1.1234e-06,0.585079,2.15694e-06,0.597463,-3.78981e-06,0.596277,-1.21949e-06,0.592553
5.22892e-06,0.599906,2.57668e-06,0.58454,-1.11321e-06,0.578244,2.40016e-07,0.587978,-8.48012e-07,0.584154,2.36965e-06,0.588333,-5.72605e-06,0.585071,3.69294e-06,0.591085,-4.29077e-06,0.589955,-3.31005e-06,0.586239
6.55793e-06,0.59307,-3.06592e-06,0.577377,4.2673e-06,0.575126,-2.24742e-06,0.568164,1.50033e-06,0.580375,-3.04358e-06,0.583683,-2.87939e-06,0.57614,5.43593e-06,0.586369,-4.95507e-06,0.585673,2.41721e-06,0.582092
3.24628e-06,0.589147,3.63127e-06,0.5745,3.99446e-06,0.571608,3.05475e-07,0.576929,5.32726e-07,0.576319,-5.43497e-07,0.577584,6.98033e-07,0.57611,1.12205e-06,0.580471,1.70977e-06,0.584108,-3.31005e-06,0.576341
0.0361909,0.804241,0.03138,0.768773,0.00735827,0.693529,3.13111e-06,0.560377,0.000861918,0.65972,0.00732472,0.700153,1.64692e-06,0.616542,0.000217459,0.6538,0.0725341,0.881799,-2.01434e-06,0.574185
0.258343,1.45614,0.252183,1.37191,0.213131,1.23838,-2.61835e-07,0.567755,0.183882,1.13652,0.212101,1.2283,0.144757,1.05068,0.172959,1.16162,0.298072,1.53072,-4.24645e-07,0.568362
0.48639,2.07855,0.479916,1.95192,0.441713,1.82902,0.0189754,0.71971,0.411349,1.71076,0.439797,1.80795,0.372883,1.64564,0.400813,1.79713,0.525936,2.11218,0.00377753,0.678945
0.714558,2.64984,0.707561,2.4795,0.670132,2.34771,0.235921,1.31609,0.638956,2.21292,0.667603,2.31425,0.601175,2.17393,0.628846,2.34426,0.75401,2.6548,0.201319,1.2094
0.942833,3.16781,0.934983,2.95806,0.898735,2.82762,0.46434,1.89224,0.866787,2.67804,0.895183,2.78594,0.829626,2.65248,0.857077,2.85113,0.982373,3.14869,0.429148,1.80788
1.17082,3.66429,1.16266,3.41759,1.12742,3.27521,0.692718,2.42632,1.09453,3.11081,1.12252,3.22422,1.05815,3.10081,1.08544,3.32006,1.21048,3.62154,0.65715,2.329
1.39895,4.12201,1.39053,3.84077,1.35584,3.69398,0.921054,2.88689,1.32225,3.52008,1.35017,3.63759,1.2864,3.51946,1.31358,3.76076,1.43854,4.05783,0.885322,2.81297
1.62703,4.56111,1.61827,4.24698,1.58442,4.09099,1.14965,3.35754,1.54974,3.90325,1.57791,4.02555,1.51487,3.91565,1.54154,4.17342,1.66643,4.47848,1.11319,3.26118
1.85527,4.97126,1.84602,4.62775,1.81292,4.46588,1.3782,3.75465,1.77734,4.26914,1.80577,4.39623,1.74324,4.28705,1.76946,4.56535,1.89452,4.87207,1.34129,3.68413
2.08366,5.36445,2.07351,4.99408,2.04151,4.82044,1.60677,4.17438,2.00512,4.6165,2.03342,4.74371,1.97168,4.64143,1.99769,4.93554,2.12273,5.24825,1.56928,4.08184
2.31167,5.73566,2.30133,5.33811,2.27036,5.16024,1.83523,4.52564,2.23292,4.94535,2.261,5.07796,2.20035,4.97668,2.22602,5.28768,2.35076,5.60654,1.79729,4.45799
2.53985,6.0882,2.52917,5.66902,2.49884,5.48277,2.06362,4.90124,2.46075,5.26226,2.48859,5.39348,2.42862,5.29701,2.45429,5.62116,2.57886,5.94633,2.02557,4.81375
2.76775,6.4243,2.75677,5.98142,2.72742,5.78863,2.29212,5.22245,2.68836,5.55805,2.71629,5.69446,2.65715,5.60037,2.6824,5.93906,2.80675,6.26917,2.25348,5.15387
2.99591,6.74303,2.98449,6.28126,2.95578,6.08049,2.52061,5.55506,2.91602,5.84617,2.94409,5.98077,2.88538,5.89091,2.91037,6.2392,3.03489,6.57964,2.48163,5.47503
3.22431,7.04605,3.21192,6.56462,3.18432,6.35864,2.74917,5.85203,3.1437,6.11821,3.17164,6.25438,3.1137,6.16458,3.13856,6.52791,3.26318,6.87235,2.7095,5.7827
3.4523,7.33831,3.43967,6.83906,3.41314,6.62524,2.97762,6.14566,3.37139,6.37924,3.39914,6.5139,3.3424,6.429,3.3668,6.80078,3.49131,7.15689,2.9374,6.0737
3.68059,7.61327,3.66751,7.09643,3.64158,6.87901,3.206,6.42123,3.59914,6.6282,3.6267,6.76323,3.57064,6.68048,3.595,7.0626,3.71937,7.42373,3.1657,6.35111
3.90857,7.88018,3.89532,7.34713,3.87028,7.12331,3.43456,6.68403,3.82676,6.8668,3.85454,7.00115,3.79923,6.91956,3.82305,7.31141,3.94718,7.68448,3.39357,6.61667
4.13677,8.12914,4.12308,7.58554,4.09874,7.3541,3.66315,6.93734,4.05441,7.09604,4.08242,7.22913,4.02759,7.15148,4.05104,7.54969,4.17518,7.92819,3.62178,6.87024
4.36514,8.37384,4.35057,7.81482,4.3273,7.57899,3.89171,7.17655,4.28222,7.31421,4.31005,7.44801,4.256,7.37007,4.27924,7.77834,4.40343,8.16599,3.84978,7.11107
4.59309,8.60177,4.57819,8.03252,4.55607,7.79128,4.12013,7.40686,4.50995,7.52651,4.53755,7.65631,4.48459,7.58234,4.50758,7.9956,4.63164,8.38899,4.07775,7.34212
4.82122,8.82361,4.80599,8.24189,4.78447,7.99545,4.34844,7.6254,4.73773,7.72588,4.76504,7.85509,4.71284,7.78346,4.73588,8.2032,4.85974,8.60614,4.30595,7.56543
5.04931,9.03111,5.03376,8.44034,5.01308,8.18963,4.5769,7.83629,4.96538,7.91797,4.99275,8.04609,4.94128,7.9768,4.96395,8.40177,5.08771,8.81161,4.53383,7.77646
5.27745,9.23385,5.26144,8.63246,5.24155,8.37521,4.80548,8.03496,5.19294,8.1026,5.22053,8.22849,5.16969,8.15958,5.19186,8.59087,5.31573,9.00806,4.76191,7.97839
5.50581,9.42352,5.48901,8.81314,5.47009,8.55238,5.03406,8.22707,5.42062,8.27662,5.44829,8.40035,5.39803,8.33546,5.41989,8.77188,5.54399,9.19637,4.98993,8.17252
5.73394,9.60636,5.71668,8.98497,5.69887,8.7219,5.26258,8.40708,5.64834,8.44276,5.67577,8.565,5.62661,8.50414,5.64828,8.9425,5.7721,9.3744,5.21787,8.35614
5.96209,9.77692,5.9444,9.14975,5.92745,8.88116,5.49102,8.58432,5.87603,8.60202,5.90318,8.72022,5.85502,8.66307,5.87652,9.10415,6.00006,9.54338,5.44604,8.53249
6.19003,9.94097,6.17235,9.30549,6.15607,9.03446,5.71946,8.74351,6.10377,8.75208,6.13107,8.8686,6.08351,8.81357,6.10449,9.25708,6.228,9.70509,5.67409,8.70071
6.41821,10.0948,6.40008,9.45322,6.38441,9.17901,5.94805,8.90541,6.3315,8.8957,6.35897,9.01045,6.31182,8.9575,6.3326,9.40329,6.45609,9.85742,5.90219,8.85729
6.64652,10.2419,6.62749,9.59391,6.613,9.31559,6.17649,9.04693,6.55921,9.03027,6.58662,9.14291,6.54019,9.09272,6.56079,9.54171,6.68425,10.0018,6.13013,9.00822
6.87452,10.3794,6.8551,9.72798,6.8417,9.44542,6.40495,9.19261,6.786872,9.16032,6.81398,9.26786,6.76876,9.2225,6.78915,9.67287,6.91246,10.1393,6.35817,9.15071
7.10275,10.509,7.08295,9.85223,7.07016,9.57018,6.63342,9.31952,7.01466,9.2812,7.04155,9.38841,6.99702,9.34349,7.01735,9.7956,7.14062,10.2691,6.58627,9.28684
7.33085,10.6328,7.31076,9.97326,7.29884,9.68534,6.86181,9.44867,7.24227,9.3976,7.2693,9.49978,7.22554,9.45882,7.2454,9.91218,7.36859,10.3919,6.81415,9.41526
7.55904,10.7492,7.53851,10.0848,7.52734,9.79507,7.0904,9.56387,7.46995,9.50521,7.49709,9.60737,7.45395,9.56886,7.47335,10.0212,7.59651,10.5071,7.04228,9.5369
7.78739,10.8585,7.76606,10.1923,7.7559,9.89948,7.31904,9.68021,7.69763,9.60892,7.72489,9.70781,7.68238,9.67203,7.70145,10.1251,7.82466,10.6171,7.27035,9.65163
8.01538,10.9618,7.9937,10.292,7.98467,9.99803,7.54758,9.78217,7.92527,9.707,7.95243,9.80267,7.91097,9.76887,7.92977,10.2228,8.0528,10.7192,7.49839,9.76012
8.24357,11.0595,8.22152,10.3868,8.21311,10.0908,7.77598,9.88571,8.15308,9.79767,8.17993,9.89214,8.13928,9.86041,8.15801,10.3147,8.28089,10.8175,7.72654,9.86225
8.47161,11.1511,8.4492,10.4766,8.44177,10.181,8.00436,9.97583,8.38081,9.88574,8.4076,9.97691,8.36776,9.94783,8.38619,10.4022,8.50888,10.9096,7.95446,9.95843
8.69967,11.2405,8.67699,10.5636,8.67025,10.2618,8.23279,10.069,8.60856,9.96934,8.63543,10.0592,8.59618,10.0306,8.61416,10.4864,8.73688,10.9966,8.18261,10.0498
8.92799,11.3223,8.90446,10.6428,8.89866,10.3425,8.46133,10.1488,8.83619,10.0474,8.86309,10.136,8.8244,10.11,8.8423,10.5647,8.96516,11.0803,8.41062,10.1366
9.15598,11.4007,9.1321,10.7204,9.1274,10.4179,8.68991,10.2325,9.0638,10.124,9.09061,10.2098,9.05298,10.1848,9.07055,10.6404,9.19333,11.1611,8.63849,10.2189
9.38428,11.475,9.3599,10.7936,9.35585,10.4896,8.91831,10.3042,9.29159,10.1946,9.31808,10.2783,9.28126,10.25527,9.29873,10.711,9.42148,11.2348,8.86657,10.2978
9.61241,11.5447,9.58774,10.8635,9.58457,10.5583,9.14683,10.3805,9.51925,10.2627,9.54582,10.3444,9.50983,10.3241,9.52687,10.7776,9.64939,11.3067,9.09449,10.3714
9.84052,11.6112,9.81557,10.9297,9.81316,10.6232,9.37532,10.4464,9.74692,10.327,9.77373,10.4079,9.73832,10.386,9.75485,10.8417,9.87726,11.3741,9.32271,10.4412
10.0689,11.6763,10.0431,10.9933,10.0417,10.6845,9.60398,10.5129,9.97465,10.3894,10.0015,10.4685,9.96668,10.4477,9.98294,10.9028,10.1054,11.4385,9.55085,10.5086
10.2968,11.737,10.2707,11.0528,10.2704,10.744,9.83247,10.573,10.2022,10.448,10.229,10.5249,10.1952,10.5065,10.2113,10.9601,10.3335,11.4996,9.77882,10.5721
10.525,11.7956,10.4984,11.1108,10.4988,10.8011,10.0608,10.6337,10.4301,10.5047,10.4564,10.5805,10.4235,10.5627,10.4395,11.0168,10.5617,11.5594,10.007,10.6333
10.7531,11.8495,10.7261,11.1664,10.7274,10.855,10.2892,10.6879,10.6578,10.5586,10.6841,10.6318,10.6519,10.6161,10.6677,11.0687,10.7898,11.6135,10.2348,10.6904
10.9811,11.9019,10.954,11.2187,10.9559,10.906,10.5176,10.7429,10.8855,10.61,10.9119,10.6824,10.8804,10.6663,10.8957,11.1178,11.0178,11.6692,10.4629,10.7449
11.2095,11.9522,11.1815,11.2694,11.1844,10.9557,10.7462,10.7918,11.1131,10.6603,11.1397,10.7311,11.1087,10.7137,11.1238,11.1679,11.2459,11.7209,10.691,10.7962
11.4376,12.0012,11.4091,11.3179,11.4132,11.003,10.9748,10.841,11.3407,10.7075,11.3672,10.7755,11.3372,10.7616,11.352,11.2149,11.4741,11.7707,10.9189,10.8478
11.6658,12.046,11.6369,11.3638,11.6417,11.0492,11.2033,10.8878,11.5685,10.7522,11.5947,10.8202,11.5656,10.8071,11.5802,11.2583,11.7021,11.8179,11.147,10.8955
11.894,12.0904,11.8648,11.4083,11.8703,11.0925,11.4317,10.9328,11.7963,10.797,11.8224,10.8623,11.7941,10.8505,11.8084,11.3007,11.9301,11.8627,11.375,10.9422
12.122,12.1313,12.0926,11.4528,12.099,11.1341,11.6602,10.9757,12.024,10.839,12.0503,10.9047,12.0227,10.891,12.0365,11.3422,12.1581,11.9055,11.6032,10.9857
12.3503,12.1733,12.3201,11.4927,12.3274,11.1744,11.8887,11.017,12.2517,10.8795,12.278,10.9441,12.2509,10.9322,12.2646,11.3816,12.3863,11.9471,11.8313,11.0279
12.5783,12.2124,12.5475,11.5335,12.556,11.214,12.1172,11.0574,12.4793,10.92,12.5055,10.9816,12.4794,10.9697,12.4928,11.4207,12.6145,11.9877,12.0592,11.0685
12.8065,12.2489,12.7752,11.5709,12.7845,11.2516,12.3457,11.0937,12.707,10.9566,12.7328,11.0189,12.7076,11.0075,12.7211,11.4562,12.8426,12.026,12.2873,11.1091
13.0346,12.2859,13.0031,11.609,13.0132,11.2881,12.5741,11.1333,12.9347,10.994,12.9606,11.054,12.9362,11.0434,12.9491,11.4924,13.0707,12.0634,12.5151,11.1464
13.2627,12.3207,13.231,11.6441,13.2417,11.323,12.8026,11.1672,13.1625,11.0294,13.1885,11.0882,13.1646,11.0779,13.1771,11.5273,13.2986,12.1,12.7433,11.1838
13.4911,12.3541,13.4586,11.6789,13.4703,11.3577,13.0312,11.2026,13.3901,11.0621,13.4162,11.1214,13.3931,11.1109,13.4053,11.5597,13.5267,12.1336,12.9714,11.2186
13.7191,12.3873,13.6862,11.7131,13.699,11.3904,13.2598,11.236,13.6177,11.0962,13.6439,11.1535,13.6216,11.1445,13.6335,11.5908,13.7547,12.1669,13.1994,11.2533
13.9473,12.4175,13.9139,11.747,13.9274,11.423,13.4883,11.2689,13.8455,11.1287,13.8714,11.1852,13.8498,11.1748,13.8617,11.6227,13.983,12.1987,13.4275,11.285
14.1754,12.4487,14.1417,11.7778,14.1561,11.4534,13.7166,11.2993,14.0733,11.1597,14.099,11.2156,14.0784,11.2077,14.09,11.6526,14.211,12.2306,13.6554,11.3161
14.4034,12.4778,14.3695,11.8098,14.3847,11.4841,13.945,11.3301,14.3011,11.1906,14.3268,11.2461,14.3069,11.2369,14.3181,11.6835,14.439,12.2616,13.8836,11.3477
14.6317,12.5063,14.5971,11.8379,14.6131,11.5141,14.1736,11.3585,14.5288,11.2204,14.5545,11.2759,14.5352,11.2656,14.5461,11.7122,14.6671,12.2916,14.1116,11.3769
14.8597,12.534,14.8246,11.868,14.8418,11.5418,14.4022,11.3881,14.7562,11.2489,14.7821,11.3025,14.7636,11.2946,14.7743,11.7417,14.8953,12.3207,14.3396,11.4063
15.088,12.5617,15.0523,11.8953,15.0702,11.5704,14.6307,11.4137,14.9839,11.2772,15.0095,11.3303,14.9919,11.3212,15.0025,11.7672,15.1234,12.3487,14.5676,11.4335
15.3163,12.5862,15.2802,11.9235,15.2989,11.5976,14.8591,11.4428,15.2117,11.3043,15.2372,11.3571,15.2205,11.348,15.2306,11.7944,15.3515,12.3773,14.7955,11.4617
15.5444,12.6131,15.5081,11.9511,15.5276,11.6228,15.0875,11.4671,15.4394,11.3313,15.465,11.3838,15.4491,11.3746,15.4587,11.8203,15.5793,12.4019,15.0237,11.4884
15.7726,12.6378,15.7357,11.9773,15.7561,11.6499,15.3161,11.496,15.6672,11.3571,15.6929,11.4089,15.6774,11.4003,15.6868,11.8452,15.8074,12.4286,15.2519,11.5135
16.0005,12.6617,15.9632,12.0027,15.9847,11.6763,15.5447,11.5192,15.8947,11.3843,15.9205,11.4355,15.9059,11.4255,15.915,11.8708,16.0356,12.4536,15.4799,11.5393
16.2287,12.6865,16.1908,12.0284,16.2131,11.7019,15.7731,11.5443,16.1225,11.4083,16.1479,11.4589,16.1341,11.4494,16.1433,11.8953,16.2638,12.4783,15.7079,11.5664
16.4569,12.7082,16.4186,12.0525,16.4417,11.7273,16.0015,11.5692,16.3503,11.4331,16.3754,11.4834,16.3625,11.4737,16.3715,11.9196,16.4919,12.5031,15.9358,11.5884
16.685,12.7316,16.6464,12.0765,16.6704,11.7511,16.2299,11.592,16.5781,11.4572,16.6031,11.5061,16.5911,11.4971,16.5996,11.9435,16.7198,12.5271,16.1638,11.6136
16.9132,12.7541,16.8741,12.1013,16.8989,11.7752,16.4585,11.6156,16.8057,11.481,16.831,11.5298,16.8195,11.5194,16.8276,11.9663,16.9479,12.5494,16.392,11.636
17.1413,12.7765,17.1016,12.124,17.1274,11.7976,16.6871,11.6385,17.0331,11.5055,17.0587,11.5536,17.0479,11.5444,17.0558,11.9891,17.176,12.5737,16.62,11.6591
17.3695,12.7992,17.3293,12.1479,17.3559,11.822,16.9156,11.6605,17.2609,11.5281,17.2862,11.5755,17.2762,11.5655,17.2839,12.0124,17.4041,12.5957,16.8481,11.6825
17.5978,12.8208,17.5572,12.1704,17.5847,11.8437,17.144,11.6831,17.4886,11.5508,17.5138,11.5987,17.5047,11.5889,17.5122,12.0336,17.6322,12.6194,17.0759,11.7052
17.8258,12.8421,17.7851,12.194,17.8134,11.8669,17.3724,11.7066,17.7165,11.5753,17.7416,11.6209,17.7333,11.61,17.7403,12.0562,17.8602,12.6413,17.3041,11.7272
18.054,12.8643,18.0127,12.2161,18.0418,11.889,17.6009,11.7277,17.9442,11.5975,17.9694,11.6437,17.9617,11.6331,17.9684,12.0793,18.0883,12.6635,17.5323,11.7508
18.2819,12.8845,18.2401,12.2391,18.2704,11.9123,17.8294,11.751,18.1717,11.6205,18.197,11.6662,18.1901,11.6549,18.1966,12.1004,18.3164,12.6848,17.7603,11.7708
18.5102,12.9057,18.4677,12.2606,18.4987,11.9337,18.058,11.7724,18.3995,11.6424,18.4244,11.6868,18.4182,11.6776,18.4248,12.123,18.5446,12.7067,17.9883,11.7944
18.7385,12.9245,18.6955,12.2843,18.7274,11.9564,18.2864,11.7945,18.6271,11.6652,18.652,11.7088,18.6468,11.6979,18.653,12.1441,18.7728,12.7285,18.2161,11.814
18.9666,12.9454,18.9235,12.3057,18.9561,11.9769,18.5148,11.8147,18.8549,11.6875,18.8797,11.7319,18.8754,11.7222,18.881,12.1648,19.0008,12.7493,18.4442,11.8362
19.1948,12.966,19.1512,12.3298,19.1847,11.9991,18.7434,11.8364,19.0826,11.7102,19.1076,11.754,19.1038,11.7415,19.1091,12.1872,19.2286,12.7714,18.6724,11.8572
19.4229,12.9869,19.3788,12.3497,19.4133,12.0214,18.972,11.8574,19.3101,11.7328,19.3354,11.7768,19.3322,11.7654,19.3373,12.2082,19.4568,12.7926,18.9005,11.8776
19.6511,13.006,19.6062,12.3732,19.6418,12.0432,19.2006,11.8785,19.5378,11.7551,19.5628,11.798,19.5606,11.7859,19.5655,12.2299,19.6849,12.8135,19.1285,11.8998
19.8791,13.0266,19.8341,12.3949,19.8704,12.0649,19.4289,11.9005,19.7657,11.7761,19.7904,11.8195,19.789,11.807,19.7937,12.2515,19.913,12.8351,19.3564,11.9194
20.1073,13.0449,20.0619,12.4171,20.0989,12.0867,19.6573,11.9213,19.9936,11.7995,20.0181,11.842,20.0174,11.8283,20.0219,12.2732,20.1411,12.8571,19.5845,11.941
20.3354,13.067,20.2896,12.4393,20.3275,12.1074,19.8858,11.9415,20.2213,11.8212,20.2458,11.863,20.2459,11.8501,20.25,12.2938,20.3691,12.8781,19.8126,11.9601
20.5634,13.087,20.5171,12.4616,20.5561,12.1308,20.1143,11.9628,20.4487,11.8435,20.4735,11.885,20.4743,11.872,20.4781,12.3155,20.5972,12.9003,20.0406,11.9815
20.7917,13.1058,20.7447,12.4831,20.7844,12.152,20.3429,11.9825,20.6764,11.865,20.701,11.9067,20.7025,11.8935,20.7062,12.337,20.8255,12.9205,20.2686,12.0018
21.02,13.1277,20.9726,12.5064,21.0132,12.1747,20.5714,12.0059,20.9041,11.887,20.9286,11.9287,20.931,11.9147,20.9344,12.3584,21.0536,12.9425,20.4965,12.0234
21.2482,13.1473,21.2005,12.5286,21.242,12.197,20.7998,12.0264,21.1319,11.9088,21.1563,11.9505,21.1597,11.9354,21.1625,12.3797,21.2815,12.9642,20.7246,12.043
21.4763,13.1689,21.4283,12.5514,21.4705,12.2206,21.0283,12.0475,21.3597,11.9319,21.3842,11.9738,21.3881,11.9585,21.3907,12.4028,21.5094,12.9856,20.9528,12.0651
21.7043,13.1893,21.6558,12.5734,21.6991,12.2416,21.257,12.0693,21.5871,11.9551,21.6119,11.9956,21.6165,11.9803,21.6189,12.4232,21.7375,13.0075,21.1809,12.0852
21.9325,13.2108,21.8833,12.597,21.9275,12.266,21.4855,12.0917,21.8149,11.9771,21.8394,12.0179,21.8448,12.0023,21.847,12.4456,21.9657,13.0309,21.409,12.1077
22.1607,13.2314,22.111,12.6187,22.156,12.2881,21.7138,12.1126,22.0427,12.0003,22.0668,12.0407,22.0732,12.0231,22.0753,12.4676,22.1939,13.0521,21.6368,12.1286
22.3888,13.2532,22.3389,12.6428,22.3847,12.3118,21.9421,12.1348,22.2704,12.0224,22.2945,12.0637,22.3018,12.0464,22.3034,12.4896,22.422,13.0761,21.8648,12.1517
22.617,13.2735,22.5667,12.6654,22.6133,12.3345,22.1706,12.1555,22.4981,12.0467,22.5224,12.0866,22.5302,12.0677,22.5315,12.513,22.65,13.0977,22.093,12.1712
22.845,13.2958,22.7943,12.6893,22.8419,12.3578,22.3993,12.1777,22.7255,12.0689,22.7501,12.1084,22.7586,12.0914,22.7596,12.5355,22.878,13.1221,22.321,12.1959
23.0733,13.3171,23.0218,12.7118,23.0703,12.3818,22.6279,12.2011,22.9533,12.0915,22.9777,12.1311,22.9869,12.1134,22.9876,12.5587,23.1061,13.1439,22.5491,12.2169
23.3016,13.3395,23.2496,12.7352,23.299,12.4053,22.8564,12.2236,23.1811,12.1125,23.2052,12.1528,23.2154,12.1372,23.2159,12.5796,23.3342,13.1654,22.777,12.2412
23.5297,13.3587,23.4775,12.7583,23.5278,12.4281,23.0847,12.2454,23.4089,12.1355,23.4329,12.1763,23.444,12.1579,23.4442,12.6017,23.5623,13.1879,23.0051,12.2634
23.7577,13.3812,23.7052,12.7813,23.7563,12.451,23.3131,12.2686,23.6367,12.1586,23.6607,12.1989,23.6724,12.1823,23.6723,12.624,23.7903,13.2106,23.2333,12.2857
23.9856,13.4022,23.9327,12.8061,23.9847,12.4748,23.5417,12.2904,23.8642,12.1831,23.8884,12.2209,23.9007,12.2037,23.9005,12.6468,24.0183,13.2335,23.4613,12.3079
24.2139,13.4224,24.1602,12.8286,24.2131,12.4976,23.7703,12.3122,24.0918,12.2045,24.1159,12.2435,24.1289,12.2278,24.1285,12.6695,24.2465,13.2557,23.6893,12.3318
24.4422,13.4451,24.388,12.8521,24.4417,12.5208,23.9988,12.3349,24.3195,12.229,24.3434,12.2664,24.3574,12.2492,24.3568,12.6914,24.4748,13.2786,23.9171,12.3529
24.6704,13.4655,24.6159,12.8759,24.6704,12.5431,24.2271,12.3566,24.5473,12.2512,24.5711,12.2892,24.586,12.2729,24.5848,12.7136,24.7028,13.3029,24.1451,12.377
24.8985,13.4879,24.8437,12.8987,24.8991,12.5672,24.4556,12.3797,24.7752,12.2751,24.7989,12.3128,24.8145,12.2959,24.813,12.7373,24.9308,13.3245,24.3734,12.3993
25.1265,13.5106,25.0713,12.9234,25.1277,12.5914,24.6842,12.4021,25.0026,12.2979,25.0267,12.3356,25.0429,12.3197,25.0411,12.758,25.1587,13.3477,24.6015,12.4216
25.3547,13.5311,25.2988,12.9461,25.356,12.614,24.9128,12.4258,25.2303,12.3219,25.2543,12.3585,25.2711,12.3424,25.2692,12.7824,25.3869,13.3715,24.8295,12.4462
25.583,13.5533,25.5266,12.9703,25.5846,12.6387,25.1413,12.4474,25.4581,12.3448,25.4818,12.3821,25.4996,12.3656,25.4975,12.8048,25.6151,13.3935,25.0574,12.4671
25.8111,13.5762,25.7544,12.9946,25.8134,12.6624,25.3695,12.4716,25.6859,12.3698,25.7094,12.4064,25.7281,12.3886,25.7257,12.8272,25.8432,13.4178,25.2854,12.491
26.0392,13.598,25.9822,13.0181,26.0419,12.6861,25.598,12.4924,25.9138,12.3938,25.9371,12.4294,25.9566,12.4134,25.9539,12.8508,26.0712,13.4415,25.5136,12.5142
26.2672,13.6207,26.2098,13.0427,26.2704,12.7119,25.8266,12.5164,26.1412,12.4173,26.1649,12.4534,26.185,12.4364,26.182,12.8739,26.2992,13.464,25.7416,12.5393
26.4954,13.6425,26.4372,13.0653,26.4988,12.7361,26.0552,12.539,26.3687,12.4405,26.3924,12.4756,26.4132,12.4597,26.41,12.8969,26.5274,13.4885,25.9697,12.5636
26.7237,13.6643,26.665,13.0904,26.7275,12.7602,26.2837,12.5638,26.5964,12.4646,26.62,12.4991,26.6417,12.4827,26.6381,12.921,26.7555,13.5123,26.1975,12.5866
26.9519,13.6878,26.893,13.1138,26.9561,12.7848,26.5121,12.5852,26.8243,12.488,26.8477,12.5228,26.8702,12.5061,26.8663,12.9425,26.9836,13.5351,26.4256,12.6101
27.1801,13.7093,27.1208,13.1382,27.1849,12.8093,26.7405,12.6101,27.0522,12.5118,27.0755,12.5466,27.0988,12.5312,27.0946,12.9661,27.2115,13.5581,26.6537,12.6338
27.4079,13.7314,27.3483,13.1608,27.4134,12.8336,26.9691,12.6319,27.2797,12.5356,27.3032,12.5696,27.3272,12.5543,27.3228,12.9889,27.4395,13.5818,26.8819,12.6574
27.6361,13.7524,27.5758,13.1841,27.6417,12.857,27.1977,12.6567,27.5073,12.5594,27.5308,12.5924,27.5554,12.5773,27.5508,13.0114,27.6677,13.6047,27.11,12.6824
27.8644,13.7754,27.8035,13.2077,27.8703,12.8816,27.4262,12.6786,27.735,12.5822,27.7582,12.6158,27.7838,12.6007,27.779,13.0342,27.8959,13.6278,27.3378,12.7036
28.0926,13.7958,28.0314,13.2309,28.099,12.9051,27.6544,12.7016,27.9628,12.6063,27.9859,12.6388,28.0123,12.6227,28.0072,13.0568,28.1241,13.6515,27.5658,12.728
28.3208,13.8193,28.2592,13.2544,28.3277,12.9287,27.8829,12.725,28.1907,12.6308,28.2137,12.6624,28.2408,12.6473,28.2354,13.0801,28.3521,13.6753,27.7939,12.7503
28.5487,13.8421,28.4869,13.2788,28.5563,12.9516,28.1115,12.7482,28.4181,12.6537,28.4414,12.6858,28.4693,12.6711,28.4635,13.1027,28.58,13.6979,28.022,12.7737
28.777,13.8653,28.7144,13.3019,28.7846,12.9762,28.3402,12.7709,28.6457,12.6767,28.6691,12.7091,28.6975,12.6938,28.6914,13.1258,28.8081,13.7224,28.2501,12.7973
29.0053,13.8875,28.942,13.3277,29.0132,13.0002,28.5687,12.7955,28.8734,12.7001,28.8965,12.733,28.926,12.7192,28.9196,13.148,29.0363,13.7448,28.478,12.8216
29.2334,13.9106,29.1699,13.3508,29.242,13.0244,28.797,12.8184,29.1013,12.7249,29.1242,12.7572,29.1545,12.7405,29.1479,13.1704,29.2644,13.7683,28.706,12.8444
29.4615,13.9327,29.3977,13.3745,29.4706,13.0489,29.0255,12.8408,29.3292,12.7492,29.352,12.781,29.383,12.7669,29.3762,13.1929,29.4924,13.7934,28.9342,12.8687
29.6894,13.955,29.6253,13.3986,29.6991,13.0732,29.254,12.8636,29.5567,12.7742,29.5797,12.8047,29.6114,12.7895,29.6043,13.2164,29.7204,13.8165,29.1623,12.8914
29.9176,13.9771,29.8527,13.4224,29.9274,13.0965,29.4826,12.8888,29.7843,12.7977,29.8073,12.8275,29.8396,12.814,29.8323,13.2392,29.9485,13.8411,29.3903,12.9156
30.1459,13.9994,30.0804,13.4458,30.156,13.1211,29.7111,12.912,30.0118,12.8222,30.0348,12.8512,30.068,12.8365,30.0605,13.2638,30.1768,13.8649,29.6181,12.9386
30.3742,14.0223,30.3084,13.4716,30.3847,13.1433,29.9394,12.9354,30.2396,12.8462,30.2624,12.8747,30.2965,12.8597,30.2886,13.2851,30.4049,13.8884,29.8461,12.9608
30.6024,14.046,30.5363,13.494,30.6134,13.1687,30.1679,12.9592,30.4675,12.8703,30.4902,12.8994,30.5251,12.883,30.5168,13.3092,30.6329,13.9129,30.0742,12.9836
30.8303,14.0679,30.7639,13.5195,30.8421,13.192,30.3965,12.9819,30.6951,12.8948,30.718,12.9223,30.7536,12.9083,30.745,13.3331,30.8607,13.9364,30.3024,13.0075
31.0584,14.0913,30.9914,13.5429,31.0704,13.2174,30.6251,13.0069,30.9228,12.9186,30.9457,12.9459,30.9819,12.9305,30.973,13.3563,31.0888,13.9594,30.5306,13.0311
31.2867,14.1138,31.219,13.5666,31.299,13.2395,30.8536,13.0303,31.1504,12.9427,31.1732,12.969,31.2102,12.9552,31.2013,13.3795,31.3171,13.9836,30.7585,13.054
31.5148,14.1363,31.4468,13.5912,31.5276,13.2649,31.0818,13.0542,31.3782,12.9666,31.4007,12.9924,31.4387,12.9767,31.4295,13.4033,31.5453,14.0072,30.9864,13.0783
31.743,14.1593,31.6747,13.614,31.7562,13.2874,31.3102,13.0765,31.6062,12.9913,31.6285,13.0172,31.6671,13.0016,31.6577,13.4261,31.7733,14.0315,31.2145,13.1006
31.971,14.1824,31.9024,13.6382,31.9849,13.3118,31.5388,13.1,31.8337,13.0142,31.8562,13.0392,31.8957,13.0246,31.8859,13.4505,32.0012,14.0547,31.4426,13.1243
32.1992,14.203,32.1298,13.6608,32.2132,13.3353,31.7674,13.1219,32.0612,13.0385,32.0839,13.0621,32.1239,13.0481,32.1137,13.4736,32.2294,14.0778,31.6707,13.1479
32.4274,14.2274,32.3575,13.6841,32.4418,13.3586,31.9961,13.1468,32.2888,13.0609,32.3114,13.0856,32.3523,13.0713,32.342,13.4956,32.4575,14.0998,31.8986,13.1696
32.6557,14.2481,32.5854,13.708,32.6705,13.3812,32.2244,13.1681,32.5166,13.0848,32.539,13.1084,32.5808,13.0948,32.5701,13.518,32.6856,14.1251,32.1266,13.1925
32.8839,14.2719,32.8133,13.7326,32.8992,13.4058,32.4528,13.1919,32.7446,13.1079,32.7668,13.1324,32.8094,13.1182,32.7984,13.5409,32.9137,14.1482,32.3547,13.2158
33.1118,14.2929,33.0409,13.7539,33.1278,13.4279,32.6814,13.2139,32.9722,13.1307,32.9946,13.155,33.0379,13.1412,33.0267,13.5642,33.1416,14.1702,32.5828,13.2377
33.3399,14.3156,33.2682,13.777,33.3562,13.452,32.9099,13.2379,33.1997,13.1526,33.22212,13.1771,33.2662,13.1628,33.2546,13.5862,33.3697,14.1925,32.811,13.2608
33.568,14.335,33.4959,13.7989,33.5846,13.4737,33.1385,13.2598,33.4274,13.1764,33.4497,13.2012,33.4944,13.1868,33.4827,13.6091,33.5979,14.2155,33.039,13.2828
33.7963,14.3577,33.7238,13.8239,33.8132,13.4968,33.3668,13.2821,33.6552,13.1973,33.6772,13.2235,33.7228,13.2073,33.711,13.6313,33.8262,14.2369,33.2668,13.3049
34.0245,14.3785,33.9516,13.8452,34.042,13.5183,33.5952,13.3027,33.883,13.2205,33.905,13.246,33.9513,13.2303,33.9392,13.6527,34.0542,14.2606,33.4947,13.3261
34.2525,14.4004,34.1794,13.8692,34.2706,13.5423,33.8237,13.3266,34.1106,13.2421,34.1327,13.2679,34.1799,13.2525,34.1674,13.6757,34.282,14.2812,33.723,13.3486
34.4806,14.4218,34.4069,13.8907,34.499,13.5637,34.0524,13.3484,34.3381,13.2631,34.3604,13.29,34.4083,13.2732,34.3953,13.6964,34.5101,14.3033,33.9511,13.3712
34.7089,14.4432,34.6345,13.9126,34.7276,13.5848,34.281,13.3712,34.5657,13.2851,34.588,13.3124,34.6366,13.2976,34.6234,13.7188,34.7382,14.3258,34.1791,13.3923
34.9371,14.4635,34.8624,13.9346,34.9562,13.6076,34.5093,13.3925,34.7936,13.3077,34.8156,13.3344,34.8651,13.3176,34.8517,13.7408,34.9664,14.3458,34.407,13.4141
35.1653,14.4862,35.0903,13.9571,35.1849,13.6286,34.7377,13.4127,35.0216,13.3287,35.0434,13.3572,35.0936,13.3399,35.0799,13.762,35.1945,14.3679,34.6351,13.4347
35.3933,14.506,35.3179,13.9779,35.4135,13.651,34.9661,13.4343,35.2492,13.3511,35.2711,13.3778,35.3221,13.3611,35.3082,13.7839,35.4224,14.3899,34.8632,13.4559
35.6213,14.5264,35.5454,13.9992,35.6419,13.6722,35.1948,13.4546,35.4768,13.372,35.4987,13.3996,35.5504,13.3822,35.5361,13.8043,35.6505,14.411,35.0914,13.4773
35.8495,14.5476,35.7729,14.0211,35.8703,13.6938,35.4233,13.4764,35.7043,13.3927,35.7262,13.4214,35.7786,13.4032,35.7642,13.8262,35.8787,14.4315,35.3193,13.4988
36.0778,14.5678,36.0007,14.0426,36.099,13.7156,35.6517,13.4968,35.932,13.4145,35.9538,13.4424,36.0071,13.4239,35.9924,13.8469,36.1069,14.4535,35.5471,13.5182
36.3061,14.589,36.2286,14.0639,36.3276,13.7363,35.8802,13.5164,36.1599,13.435,36.1815,13.4635,36.2356,13.4447,36.2206,13.8684,36.335,14.474,35.7751,13.5402
36.5341,14.6079,36.4565,14.0847,36.5564,13.7566,36.1087,13.5382,36.3876,13.455,36.4093,13.4845,36.4642,13.4658,36.4489,13.8898,36.5628,14.4947,36.0033,13.5595
36.7622,14.6288,36.684,14.105,36.7848,13.778,36.3373,13.5571,36.6152,13.4762,36.637,13.5033,36.6926,13.4853,36.6768,13.909,36.7909,14.5139,36.2315,13.5808
36.9903,14.6474,36.9115,14.1254,37.0133,13.7972,36.5659,13.5789,36.8428,13.4958,36.8646,13.5246,36.9209,13.5063,36.905,13.9293,37.019,14.535,36.4596,13.6016
37.2185,14.6681,37.1392,14.1463,37.2419,13.8176,36.7942,13.5991,37.0706,13.5173,37.0921,13.5443,37.1492,13.5255,37.1332,13.9486,37.2473,14.5539,36.6874,13.6206
37.4467,14.6875,37.3671,14.1668,37.4705,13.8371,37.0226,13.619,37.2985,13.5363,37.3198,13.5656,37.3777,13.546,37.36148,13.969,37.4754,14.5758,36.9154,13.6415
37.6748,14.7058,37.5948,14.1861,37.6992,13.8584,37.251,13.6397,37.5261,13.5561,37.5475,13.5843,37.6063,13.5664,37.5897,13.9883,37.7033,14.5933,37.1435,13.6609
37.9029,14.7244,37.8224,14.2055,37.9277,13.8769,37.4797,13.6581,37.7536,13.5749,37.7752,13.6049,37.8346,13.5849,37.8175,14.0078,37.9314,14.6137,37.3717,13.6806
38.1311,14.7443,38.05,14.2242,38.1561,13.8963,37.7083,13.6796,37.9812,13.5947,38.0028,13.6234,38.063,13.6049,38.0457,14.0261,38.1595,14.6322,37.5997,13.6999
38.3594,14.7617,38.2778,14.2448,38.3848,13.9162,37.9367,13.6982,38.209,13.6146,38.2304,13.6448,38.2914,13.6226,38.2738,14.0452,38.3876,14.6524,37.8276,13.7193
38.5877,14.7836,38.5057,14.2646,38.6134,13.9347,38.1652,13.7181,38.4369,13.6336,38.4582,13.6642,38.52,13.6423,38.5021,14.0643,38.6157,14.6719,38.0556,13.7395
38.8156,14.7993,38.7335,14.2837,38.8422,13.955,38.3936,13.7372,38.6647,13.6532,38.6859,13.6822,38.7486,13.662,38.7305,14.0842,38.8436,14.6921,38.2838,13.7591
39.0436,14.8189,38.9609,14.3027,39.0706,13.97472,38.6221,13.7556,38.8923,13.6725,38.9136,13.7023,38.9769,13.6806,38.9585,14.1026,39.0717,14.7087,38.512,13.7801
39.2718,14.8379,39.1884,14.3224,39.2989,13.9918,38.8507,13.7744,39.1198,13.6912,39.1411,13.7212,39.2051,13.6993,39.1866,14.1219,39.2999,14.7288,38.74,13.7996
39.5,14.8575,39.4162,14.3416,39.5275,14.0121,39.079,13.7939,39.3475,13.7116,39.3687,13.741,39.4335,13.7178,39.4147,14.1394,39.5282,14.7482,38.9678,13.8189
39.7283,14.8749,39.6441,14.3614,39.7562,14.0302,39.3075,13.8113,39.5754,13.7315,39.5964,13.7603,39.662,13.7363,39.6429,14.1593,39.7563,14.7694,39.1957,13.8397
39.9564,14.896,39.8719,14.3795,39.985,14.0501,39.536,13.8329,39.8031,13.7496,39.8241,13.7796,39.8906,13.7566,39.8711,14.1783,39.9841,14.7883,39.4239,13.859
40.1844,14.9119,40.0994,14.3988,40.2135,14.0692,39.7646,13.8492,40.0307,13.7695,40.0518,13.7974,40.1191,13.7745,40.0992,14.1965,40.2121,14.8076,39.6521,13.8799
40.4125,14.9318,40.3271,14.4184,40.4419,14.0877,39.9933,13.8722,40.2582,13.7865,40.2795,13.817,40.3473,13.794,40.3271,14.2143,40.4401,14.8244,39.8802,13.8998
40.6408,14.9495,40.5548,14.4376,40.6703,14.1063,40.2216,13.8889,40.486,13.806,40.5071,13.8364,40.5756,13.8116,40.5554,14.233,40.6684,14.8448,40.1081,13.9175
40.8691,14.9677,40.7826,14.4569,40.8992,14.1254,40.45,13.909,40.714,13.8259,40.7347,13.8548,40.8042,13.8296,40.7837,14.2513,40.8967,14.862,40.3359,13.9368
41.0971,14.9852,41.0103,14.4753,41.1278,14.1451,40.6783,13.9255,40.9417,13.8443,40.9623,13.8748,41.0327,13.8483,41.012,14.2703,41.1245,14.8811,40.5642,13.9557
41.3251,15.0032,41.2379,14.4918,41.3563,14.1633,40.9069,13.945,41.1692,13.8637,41.19,13.8923,41.2611,13.867,41.24,14.2874,41.3526,14.8988,40.7923,13.9738
41.5532,15.02,41.4655,14.5087,41.5847,14.182,41.1357,13.9611,41.3967,13.8822,41.4177,13.9105,41.4894,13.8853,41.468,14.3047,41.5807,14.9167,41.0204,13.9937
41.7815,15.0362,41.6932,14.5268,41.8132,14.2,41.364,13.9811,41.6244,13.8985,41.6452,13.927,41.7177,13.9027,41.6961,14.3229,41.8089,14.9333,41.2482,14.0119
42.0099,15.0528,41.9211,14.5446,42.042,14.2169,41.5925,13.9953,41.8524,13.9152,41.873,13.9441,41.9462,13.9188,41.9244,14.3379,42.0371,14.9504,41.4762,14.0285
42.2379,15.0687,42.1489,14.5608,42.2708,14.2343,41.8209,14.0157,42.08,13.9322,42.1006,13.9608,42.1749,13.9351,42.1527,14.3552,42.2649,14.9664,41.7043,14.0463
42.4659,15.0837,42.3765,14.5788,42.4993,14.2517,42.0495,14.0284,42.3077,13.9483,42.3284,13.9783,42.4034,13.9517,42.3807,14.3702,42.4929,14.9815,41.9326,14.0627
42.694,15.1004,42.604,14.5946,42.7277,14.2676,42.2782,14.0485,42.5353,13.9646,42.556,13.9951,42.6316,13.9673,42.6087,14.3874,42.721,14.9986,42.1607,14.0784
42.9222,15.1155,42.8317,14.6112,42.9562,14.2863,42.5064,14.0621,42.763,13.9818,42.7836,14.0119,42.8599,13.9833,42.8369,14.4023,42.9493,15.0156,42.3885,14.0952
43.1505,15.1313,43.0595,14.6284,43.1848,14.301,42.7349,14.0793,42.9909,13.9981,43.0112,14.0282,43.0884,13.9975,43.0652,14.4197,43.1775,15.0316,42.6164,14.1116
43.3786,15.1482,43.2873,14.6442,43.4135,14.3194,42.9633,14.0933,43.2186,14.0136,43.2388,14.0453,43.3169,14.0146,43.2935,14.4349,43.4054,15.0479,42.8444,14.1277
43.6066,15.1617,43.5149,14.6595,43.6421,14.3352,43.1918,14.1119,43.4462,14.0312,43.4666,14.0604,43.5454,14.0297,43.5214,14.4518,43.6334,15.0639,43.0727,14.1433
43.8347,15.1767,43.7425,14.6767,43.8705,14.3508,43.4206,14.1259,43.6737,14.0446,43.6943,14.0766,43.7737,14.0453,43.7495,14.4654,43.8615,15.0775,43.3008,14.1603
44.063,15.1918,43.9702,14.692,44.099,14.3668,43.6489,14.1433,43.9014,14.0618,43.9219,14.0922,44.002,14.0604,43.9776,14.4807,44.0896,15.0955,43.5287,14.1753
44.2914,15.2061,44.1981,14.7086,44.3277,14.3832,43.8775,14.1577,44.1293,14.0762,44.1496,14.1083,44.2305,14.0755,44.2059,14.4943,44.3178,15.1084,43.7566,14.1923
44.5194,15.2215,44.4259,14.723,44.5565,14.3979,44.1058,14.1738,44.3571,14.0914,44.3772,14.1242,44.4591,14.0897,44.4343,14.5108,44.5457,15.1242,43.9847,14.2059
44.7473,15.236,44.6535,14.7373,44.785,14.414,44.3343,14.1877,44.5848,14.1065,44.6049,14.1394,44.6876,14.1046,44.6622,14.5242,44.7738,15.1382,44.213,14.2214
44.9754,15.2497,44.8809,14.7525,45.0134,14.4277,44.5629,14.2052,44.8123,14.1214,44.8325,14.1532,44.9159,14.1182,44.8903,14.5397,45.0018,15.1532,44.4411,14.2373
45.2037,15.2639,45.1086,14.7669,45.2418,14.4436,44.7913,14.218,45.04,14.135,45.0601,14.1697,45.1441,14.1328,45.1184,14.5524,45.2301,15.1682,44.6689,14.251
45.432,15.2774,45.3365,14.782,45.4705,14.4567,45.0198,14.233,45.2678,14.151,45.2878,14.1845,45.3726,14.1465,45.3466,14.5683,45.4584,15.1845,44.8967,14.2659
45.6602,15.2914,45.5643,14.7958,45.6992,14.4727,45.2482,14.2479,45.4955,14.1639,45.5154,14.1983,45.6012,14.1617,45.5749,14.5811,45.6862,15.1962,45.1248,14.2811
45.8882,15.3045,45.792,14.811,45.9279,14.486,45.4768,14.2605,45.7231,14.1785,45.7432,14.2142,45.8298,14.1753,45.803,14.5962,45.9141,15.2113,45.3531,14.2953
46.1163,15.3178,46.0196,14.8246,46.1563,14.5004,45.7055,14.2773,45.9508,14.1916,45.9709,14.2271,46.058,14.1905,46.031,14.6084,46.1422,15.2251,45.5813,14.3099
46.3445,15.3305,46.2472,14.8401,46.3848,14.5152,45.9339,14.2899,46.1784,14.2066,46.1985,14.2438,46.2863,14.2034,46.2591,14.6222,46.3704,15.2388,45.8092,14.324
46.5728,15.3431,46.475,14.8541,46.6135,14.5284,46.1623,14.3044,46.4063,14.2214,46.4262,14.2577,46.5148,14.2179,46.4874,14.637,46.5987,15.2522,46.037,14.3378
46.8009,15.3581,46.7028,14.8672,46.8421,14.5424,46.3906,14.3184,46.6341,14.2335,46.6537,14.2711,46.7433,14.2318,46.7158,14.6512,46.8266,15.2667,46.2652,14.3519
47.0289,15.3694,46.9303,14.8826,47.0708,14.5568,46.6191,14.332,46.8618,14.2495,46.8813,14.286,46.9718,14.2463,46.9439,14.6638,47.0547,15.2794,46.4933,14.3653
47.2568,15.3824,47.158,14.8962,47.2991,14.5681,46.8478,14.3447,47.0892,14.2611,47.109,14.2997,47.2001,14.2576,47.1718,14.6788,47.2827,15.293,46.7214,14.3803
47.4852,15.3953,47.3856,14.9094,47.5275,14.5836,47.0763,14.3599,47.3169,14.2759,47.3368,14.3132,47.4283,14.273,47.3998,14.6901,47.5109,15.3077,46.9493,14.3925
47.7136,15.408,47.6135,14.9245,47.7563,14.595,47.3048,14.3715,47.5447,14.2875,47.5644,14.3275,47.6569,14.2854,47.6281,14.7055,47.7391,15.32,47.1771,14.4066
47.9418,15.4213,47.8414,14.9383,47.9851,14.6094,47.5332,14.387,47.7725,14.3015,47.792,14.3407,47.8856,14.2995,47.8564,14.717,47.967,15.334,47.4053,14.4211
48.1698,15.433,48.069,14.9523,48.2138,14.6223,47.7617,14.3988,48.0002,14.3148,48.0198,14.3544,48.1141,14.3139,48.0846,14.7302,48.195,15.3474,47.6336,14.4335
48.3977,15.4452,48.2966,14.965,48.4421,14.6357,47.9904,14.4137,48.2278,14.3283,48.2474,14.3665,48.3423,14.3259,48.3126,14.7428,48.423,15.3601,47.8617,14.4489
48.6259,15.4573,48.5241,14.9796,48.6704,14.648,48.2187,14.4263,48.4555,14.3395,48.4751,14.3806,48.5705,14.3394,48.5407,14.7556,48.6513,15.3738,48.0897,14.4603
48.8543,15.469,48.7519,14.991,48.8991,14.6608,48.4472,14.4404,48.6833,14.3534,48.7027,14.3921,48.799,14.3521,48.769,14.767,48.8795,15.3864,48.3175,14.4729
49.0825,15.4808,48.9797,15.0033,49.1278,14.6748,48.6756,14.4516,48.911,14.3634,48.9302,14.4044,49.0276,14.3645,48.9973,14.78,49.1075,15.3982,48.5454,14.4867
49.3105,15.4924,49.2074,15.0174,49.3565,14.6849,48.9041,14.4659,49.1387,14.3773,49.1579,14.4183,49.2561,14.3772,49.2253,14.791,49.3355,15.4116,48.7737,14.4969
49.5384,15.5028,49.435,15.028,49.585,14.6972,49.1328,14.4757,49.3663,14.3889,49.3856,14.4295,49.4845,14.3898,49.4533,14.8036,49.5635,15.4233,49.0018,14.5109
49.7667,15.5145,49.6627,15.0404,49.8133,14.7098,49.3612,14.4911,49.5938,14.4009,49.6134,14.4411,49.7127,14.4007,49.6813,14.814,49.7916,15.4365,49.2298,14.5231
49.9951,15.5247,49.8905,15.0526,50.042,14.7197,49.5897,14.5002,49.8217,14.4118,49.8411,14.4532,49.9412,14.4138,49.9095,14.8276,50.0199,15.4471,49.4576,14.5344
50.2233,15.5366,50.1183,15.0642,50.2708,14.733,49.8182,14.5154,50.0495,14.4242,50.0686,14.4647,50.1698,14.4254,50.1379,14.837,50.2478,15.4593,49.6857,14.5471
50.4512,15.5463,50.346,15.0763,50.4995,14.7432,50.0465,14.5255,50.2773,14.4355,50.2963,14.4763,50.3983,14.4371,50.3661,14.8501,50.4759,15.4708,49.914,14.5583
50.6792,15.5549,50.5735,15.0865,50.7278,14.7545,50.2752,14.538,50.5048,14.4473,50.5239,14.4865,50.6266,14.4478,50.5942,14.8589,50.7039,15.4808,50.1421,14.5696
50.9074,15.5649,50.8011,15.0987,50.9562,14.7657,50.5035,14.5505,50.7324,14.4581,50.7516,14.4974,50.8548,14.4592,50.8222,14.8699,50.9321,15.4929,50.3701,14.5808
51.1357,15.5736,51.0289,15.1102,51.1848,14.7756,50.7321,14.5613,50.9601,14.4692,50.9793,14.5081,51.0832,14.4683,51.0503,14.8792,51.1604,15.5041,50.5978,14.5916
51.364,15.584,51.2567,15.1201,51.4135,14.7872,50.9605,14.5731,51.1879,14.4797,51.2068,14.5207,51.3118,14.481,51.2787,14.8915,51.3883,15.5144,50.8258,14.6016
51.5921,15.5936,51.4845,15.1307,51.6423,14.798,51.189,14.5845,51.4156,14.4916,51.4345,14.5302,51.5404,14.492,51.5068,14.8993,51.6163,15.527,51.054,14.6124
51.8201,15.6019,51.7121,15.143,51.8708,14.8073,51.4177,14.596,51.6433,14.5016,51.6622,14.5415,51.7688,14.5033,51.7348,14.9123,51.8442,15.5349,51.2823,14.6244
52.0482,15.6117,51.9397,15.1524,52.0992,14.8172,51.6461,14.6084,51.8709,14.5133,51.89,14.553,51.9971,14.5127,51.9629,14.9184,52.0724,15.5469,51.5103,14.6348
52.2765,15.6205,52.1674,15.1633,52.3278,14.8271,51.8746,14.6211,52.0987,14.5232,52.1177,14.563,52.2255,14.5235,52.1911,14.9314,52.3007,15.5553,51.7382,14.6448
52.5047,15.6279,52.3951,15.1724,52.5565,14.8381,52.103,14.6326,52.3265,14.535,52.345,14.5734,52.454,14.5329,52.4195,14.9393,52.5286,15.5658,51.9661,14.6551
52.7327,15.6351,52.6229,15.1821,52.7851,14.846,52.3314,14.6442,52.5542,14.5438,52.5727,14.5832,52.6825,14.5438,52.6477,14.9495,52.7567,15.5748,52.1942,14.6645
52.9607,15.6422,52.8505,15.1908,53.0136,14.8552,52.56,14.6558,52.7818,14.5549,52.8004,14.5917,52.9109,14.5525,52.8757,14.957,52.9847,15.5852,52.4224,14.6766
53.1889,15.6502,53.0782,15.2007,53.2419,14.8633,52.7884,14.6676,53.0093,14.5634,53.0281,14.6023,53.1391,14.5615,53.1036,14.9671,53.2129,15.5933,52.6504,14.6837
53.4173,15.6584,53.306,15.2099,53.4706,14.8724,53.017,14.6774,53.2371,14.5735,53.2559,14.611,53.3675,14.5695,53.3318,14.975,53.4411,15.6045,52.8783,14.6941
53.6456,15.6662,53.5338,15.2196,53.6994,14.8809,53.2455,14.6895,53.4649,14.5832,53.4833,14.6217,53.5961,14.5806,53.5601,14.9839,53.669,15.6129,53.1063,14.7027
53.8736,15.6737,53.7615,15.2291,53.9281,14.8907,53.474,14.6984,53.6927,14.5936,53.7111,14.6311,53.8247,14.5894,53.7884,14.9922,53.8971,15.6227,53.3345,14.7124
54.1014,15.6817,53.9891,15.2388,54.1566,14.8995,53.7026,14.709,53.9204,14.6024,53.9388,14.6407,54.0531,14.599,54.0165,15.001,54.125,15.6311,53.5627,14.7214
54.3296,15.6891,54.2167,15.247,54.3848,14.9094,53.9309,14.7195,54.148,14.6127,54.1665,14.6488,54.2812,14.6074,54.2445,15.008,54.3532,15.6414,53.7908,14.7319
54.558,15.6964,54.4444,15.257,54.6134,14.9176,54.1595,14.7277,54.3757,14.6206,54.3941,14.6578,54.5096,14.6158,54.4727,15.0176,54.5816,15.6488,54.0184,14.7393
54.7862,15.7033,54.6721,15.2646,54.8422,14.9273,54.3878,14.7372,54.6034,14.6304,54.6216,14.6665,54.7382,14.6252,54.701,15.0247,54.8095,15.6586,54.2464,14.7491
55.0143,15.7111,54.8999,15.2742,55.0709,14.936,54.6163,14.7467,54.8311,14.6396,54.8492,14.6754,54.9667,14.6337,54.9291,15.0323,55.0377,15.6682,54.4746,14.7573
55.2423,15.7176,55.1277,15.2821,55.2994,14.9439,54.8451,14.7546,55.0588,14.6474,55.077,14.683,55.1952,14.6408,55.1571,15.0407,55.2655,15.6752,54.7028,14.7681
55.4705,15.7238,55.3553,15.2899,55.5278,14.9522,55.0734,14.7657,55.2864,14.6566,55.3048,14.6924,55.4235,14.6496,55.3852,15.0478,55.4936,15.6833,54.9309,14.775
55.6988,15.731,55.583,15.2973,55.7564,14.9608,55.302,14.7728,55.5141,14.665,55.5326,14.6997,55.6519,14.6561,55.6133,15.0559,55.7219,15.6919,55.1588,14.7845
55.927,15.7379,55.8106,15.3057,55.9851,14.9685,55.5305,14.7813,55.7419,14.6737,55.7599,14.7089,55.8804,14.6648,55.8417,15.0627,55.9498,15.6984,55.3868,14.7918
56.1551,15.7435,56.0384,15.3118,56.2138,14.9766,55.7588,14.787,55.9697,14.6823,55.9876,14.7161,56.1089,14.6722,56.07,15.07,56.178,15.7075,55.6149,14.8006
56.383,15.7504,56.2661,15.3205,56.4423,14.9836,55.9874,14.7966,56.1974,14.6915,56.2152,14.7232,56.3374,14.6812,56.298,15.0777,56.406,15.7154,55.8431,14.8092
56.6111,15.7562,56.4937,15.3269,56.6706,14.9926,56.2157,14.8033,56.4249,14.6991,56.443,14.7307,56.5656,14.6867,56.526,15.0851,56.634,15.7238,56.0711,14.8168
56.8394,15.7644,56.7214,15.3351,56.8991,14.9988,56.4443,14.8113,56.6526,14.7075,56.6707,14.738,56.7939,14.6956,56.7541,15.0926,56.8623,15.7317,56.2989,14.8259
57.0677,15.7697,56.9491,15.3429,57.1279,15.0084,56.6729,14.8173,56.8803,14.7158,56.8982,14.7459,57.0224,14.7027,56.9824,15.0999,57.0903,15.7395,56.5268,14.8334
57.2959,15.7765,57.177,15.3495,57.3566,15.0145,56.9013,14.8251,57.1081,14.7226,57.1258,14.7523,57.251,14.7108,57.2106,15.1071,57.3184,15.7473,56.755,14.8416
57.5239,15.7824,57.4047,15.356,57.5853,15.023,57.1299,14.8326,57.3358,14.73,57.3536,14.759,57.4796,14.7194,57.4387,15.1146,57.5463,15.7545,56.9832,14.8491
57.7519,15.7875,57.6323,15.3632,57.8136,15.0295,57.3583,14.8405,57.5634,14.7378,57.5814,14.7657,57.7078,14.7276,57.6667,15.1207,57.7743,15.7603,57.2113,14.8573
57.9802,15.7934,57.86,15.3692,58.0421,15.0362,57.5869,14.8465,57.7911,14.7428,57.8091,14.7725,57.9361,14.7336,57.8949,15.1279,58.0026,15.7669,57.4393,14.8642
58.2085,15.7991,58.0876,15.3756,58.2707,15.0434,57.8153,14.8529,58.0188,14.752,58.0365,14.7799,58.1646,14.7427,58.1232,15.1327,58.2306,15.7739,57.6671,14.8714
58.4366,15.8042,58.3154,15.3811,58.4995,15.0503,58.0437,14.8582,58.2466,14.7581,58.2641,14.7848,58.3931,14.7505,58.3514,15.1394,58.4589,15.7807,57.8952,14.8797
58.6645,15.8087,58.5431,15.3858,58.728,15.0568,58.2723,14.8642,58.4743,14.765,58.4918,14.7905,58.6216,14.757,58.5795,15.1462,58.6868,15.7875,58.1234,14.886
58.8927,15.8136,58.7707,15.3936,58.9564,15.0628,58.5006,14.8703,58.7018,14.7713,58.7195,14.7967,58.8499,14.764,58.8075,15.1516,58.9149,15.7937,58.3515,14.8921
59.121,15.8192,58.9985,15.3975,59.1849,15.0694,58.7293,14.8758,58.9295,14.7766,58.9473,14.8028,59.0782,14.771,59.0355,15.158,59.1431,15.8006,58.5793,14.8997
59.3493,15.8242,59.2262,15.4045,59.4137,15.0771,58.9578,14.8815,59.1572,14.7841,59.1748,14.8089,59.3067,14.7781,59.2639,15.164,59.371,15.8067,58.8072,14.9044
59.5774,15.8284,59.454,15.4069,59.6424,15.082,59.1863,14.8871,59.385,14.7907,59.4025,14.8139,59.5353,14.7858,59.4921,15.1694,59.5991,15.8111,59.0354,14.9124
59.8053,15.8336,59.6816,15.4131,59.871,15.091,59.4148,14.892,59.6129,14.7956,59.6301,14.8189,59.7638,14.7919,59.7203,15.1749,59.827,15.8179,59.2637,14.9186
60.0333,15.8359,59.9093,15.4158,60.0994,15.0944,59.6431,14.8973,59.8405,14.8029,59.8579,14.8245,59.9921,14.7973,59.9484,15.1811,60.0552,15.8214,59.4918,14.9242
60.2616,15.8414,60.1369,15.4203,60.3277,15.1017,59.8717,14.9014,60.068,14.8075,60.0856,14.83,60.2203,14.8039,60.1764,15.1855,60.2835,15.8282,59.7197,14.9305
60.4899,15.8458,60.3645,15.4216,60.5564,15.1075,60.1002,14.9064,60.2958,14.8149,60.313,14.8355,60.4488,14.8094,60.4047,15.1904,60.5115,15.8337,59.9474,14.9361
60.7181,15.8493,60.5923,15.4238,60.7852,15.1134,60.3286,14.909,60.5235,14.8194,60.5405,14.8392,60.6774,14.8153,60.6329,15.1961,60.7397,15.838,60.1755,14.941
60.946,15.8529,60.8201,15.4234,61.0138,15.12,60.5572,14.9142,60.7512,14.8253,60.7683,14.8454,60.9059,14.8189,60.861,15.1982,60.9676,15.8445,60.4038,14.9463
61.1742,15.8578,61.0479,15.4241,61.2421,15.1246,60.7856,14.9181,60.9789,14.8298,60.9962,14.8501,61.1341,14.8229,61.089,15.2035,61.1956,15.8473,60.6319,14.9516
61.4025,15.8599,61.2756,15.4195,61.4707,15.1302,61.0142,14.92,61.2065,14.8354,61.224,14.855,61.3625,14.8256,61.3171,15.2073,61.4239,15.8518,60.8598,14.9562
61.6307,15.8641,61.5031,15.4162,61.6994,15.1354,61.2427,14.9242,61.4343,14.8402,61.4514,14.8598,61.591,14.8278,61.5454,15.2096,61.6518,15.8568,61.0878,14.9601
61.8589,15.867,61.7309,15.4068,61.9281,15.1407,61.4711,14.9238,61.6621,14.8453,61.6789,14.8645,61.8195,14.8277,61.7737,15.214,61.88,15.8596,61.3158,14.9655
62.0868,15.8699,61.9586,15.3908,62.1567,15.1447,61.6996,14.9254,61.8899,14.8495,61.9065,14.8683,62.048,14.8257,62.0019,15.217,62.108,15.8637,61.544,14.969
62.3148,15.8715,62.1863,15.3619,62.3851,15.1493,61.928,14.9242,62.1174,14.8539,62.1343,14.8723,62.2763,14.82,62.2299,15.2203,62.3361,15.8664,61.7721,14.974
62.5431,15.8757,62.414,15.3047,62.6135,15.1526,62.1566,14.9227,62.3449,14.8559,62.3621,14.8762,62.5046,14.8078,62.4579,15.2227,62.5643,15.8686,62,14.9768
62.7715,15.8779,62.6416,15.1413,62.8421,15.1581,62.3852,14.9193,62.5726,14.8607,62.5896,14.8807,62.733,14.778,62.6861,15.2243,62.7922,15.871,62.2279,14.9804
62.9997,15.8806,,,63.071,15.1597,62.6136,14.9147,62.8005,14.8646,62.8172,14.8834,62.9617,14.6862,62.9144,15.2265,63.0204,15.8734,62.4559,14.9834
63.2277,15.882,,,63.2996,15.1667,62.8422,14.9057,63.0282,14.8682,63.0449,14.888,,,63.1426,15.2281,63.2484,15.8751,62.6842,14.9871
63.4556,15.8832,,,63.5281,15.1677,63.0705,14.8925,63.2559,14.8702,63.2726,14.8908,,,63.3706,15.2308,63.4764,15.8754,62.9123,14.988
63.6838,15.8843,,,63.7564,15.1732,63.299,14.8643,63.4836,14.8735,63.5005,14.8948,,,63.5987,15.231,63.7047,15.8768,63.1403,14.9913
63.9122,15.8846,,,63.985,15.1754,63.5276,14.8197,63.7112,14.8755,63.7279,14.8974,,,63.8269,15.2313,63.9326,15.8787,63.3681,14.9895
64.1404,15.8828,,,64.2137,15.179,63.756,14.7281,63.939,14.8782,63.9554,14.9,,,64.0552,15.2313,64.1609,15.8766,63.5961,14.9904
64.3684,15.8827,,,64.4424,15.1805,63.9845,14.4009,64.1667,14.878,64.1831,14.9001,,,64.2833,15.2281,64.3889,15.8767,63.8243,14.9882
64.5964,15.88,,,64.6708,15.1839,,,64.3944,14.88,64.4108,14.9029,,,64.5114,15.2262,64.6169,15.873,64.0525,14.9849
64.8246,15.8778,,,64.8993,15.1848,,,64.622,14.8789,64.6387,14.9042,,,64.7394,15.2228,64.8451,15.8676,64.2804,14.9766
65.053,15.8714,,,65.1279,15.1882,,,64.8496,14.8799,64.8663,14.9056,,,64.9676,15.2174,65.073,15.8617,64.5083,14.9691
65.2812,15.8617,,,65.3567,15.1887,,,65.0775,14.8776,65.0938,14.9048,,,65.1959,15.2104,65.3012,15.8404,64.7364,14.9552
65.5091,15.8406,,,65.5853,15.1903,,,65.3052,14.8753,65.3214,14.904,,,65.4241,15.2026,65.5292,15.8124,64.9646,14.9331
65.7371,15.8039,,,65.8137,15.19,,,65.533,14.8682,65.5492,14.9036,,,65.6522,15.1885,65.7572,15.7548,65.1927,14.8948
65.9653,15.7246,,,66.0421,15.1907,,,65.7606,14.8576,65.7769,14.9013,,,65.8803,15.1714,65.9855,15.6297,65.4207,14.8136
66.1937,15.5191,,,66.2707,15.1899,,,65.9881,14.8343,66.0045,14.8982,,,66.1084,15.1417,,,65.6485,14.5261
,,,,66.4995,15.1881,,,66.2159,14.8021,66.232,14.893,,,66.3367,15.0594,,,,
,,,,66.7282,15.1823,,,66.4437,14.738,66.4596,14.8852,,,,,,,,
,,,,66.9567,15.1743,,,66.6714,14.371,66.6874,14.8744,,,,,,,,
,,,,67.1851,15.1606,,,,,66.9153,14.858,,,,,,,,
,,,,67.4136,15.1439,,,,,67.1429,14.8213,,,,,,,,
,,,,67.6423,15.1138,,,,,67.3703,14.6061,,,,,,,,
,,,,67.871,15.0482,,,,,,,,,,,,,,
,,,,67.9567,14.9561,,,,,,,,,,,,,,